id,acc_x_1,acc_y_1,acc_z_1,acc_x_2,acc_y_2,acc_z_2,acc_x_3,acc_y_3,acc_z_3,acc_x_4,acc_y_4,acc_z_4,acc_x_5,acc_y_5,acc_z_5,acc_x_6,acc_y_6,acc_z_6,acc_x_7,acc_y_7,acc_z_7,acc_x_8,acc_y_8,acc_z_8,acc_x_9,acc_y_9,acc_z_9,acc_x_10,acc_y_10,acc_z_10,acc_x_11,acc_y_11,acc_z_11,acc_x_12,acc_y_12,acc_z_12,acc_x_13,acc_y_13,acc_z_13,acc_x_14,acc_y_14,acc_z_14,acc_x_15,acc_y_15,acc_z_15,acc_x_16,acc_y_16,acc_z_16,acc_x_17,acc_y_17,acc_z_17,acc_x_18,acc_y_18,acc_z_18,acc_x_19,acc_y_19,acc_z_19,acc_x_20,acc_y_20,acc_z_20,acc_x_21,acc_y_21,acc_z_21,acc_x_22,acc_y_22,acc_z_22,acc_x_23,acc_y_23,acc_z_23,acc_x_24,acc_y_24,acc_z_24,acc_x_25,acc_y_25,acc_z_25,acc_x_26,acc_y_26,acc_z_26,acc_x_27,acc_y_27,acc_z_27,acc_x_28,acc_y_28,acc_z_28,acc_x_29,acc_y_29,acc_z_29,acc_x_30,acc_y_30,acc_z_30,acc_x_31,acc_y_31,acc_z_31,acc_x_32,acc_y_32,acc_z_32,acc_x_33,acc_y_33,acc_z_33,acc_x_34,acc_y_34,acc_z_34,acc_x_35,acc_y_35,acc_z_35,acc_x_36,acc_y_36,acc_z_36,acc_x_37,acc_y_37,acc_z_37,acc_x_38,acc_y_38,acc_z_38,acc_x_39,acc_y_39,acc_z_39,acc_x_40,acc_y_40,acc_z_40,acc_x_41,acc_y_41,acc_z_41,acc_x_42,acc_y_42,acc_z_42,acc_x_43,acc_y_43,acc_z_43,acc_x_44,acc_y_44,acc_z_44,acc_x_45,acc_y_45,acc_z_45,acc_x_46,acc_y_46,acc_z_46,acc_x_47,acc_y_47,acc_z_47,acc_x_48,acc_y_48,acc_z_48,acc_x_49,acc_y_49,acc_z_49,acc_x_50,acc_y_50,acc_z_50,activity
0,,,,,,,,,,,,,,,,,,,,,,,,,,,,,,,,,,,,,,,,,,,,,,,,,,,,,,,,,,,,,,,,,,,,,,,,,,,,,,,,,,,,,,,,,,,,,,,,,,,,,,,,,,,,,,,,,,,,,,,,,,,,,,,,,,,,,,,,,,,,,,,,,,,,,,,
1,0.738611221,9.611522675,1.571194887,0.738611221,9.611522675,1.571194887,1.307234168,10.07120991,1.000177741,1.307234168,10.07120991,1.000177741,3.860051632,9.440936089,2.631826162,3.860051632,9.440936089,2.631826162,1.166574836,8.347982407,3.166930199,1.166574836,8.347982407,3.166930199,3.106476784,7.832032204,3.933673382,-0.071227498,8.344391823,6.752247334,-0.071227498,8.344391823,6.752247334,5.019443989,8.054693222,1.304839969,5.019443989,8.054693222,1.304839969,0.678157628,9.558850288,1.209071875,0.678157628,9.558850288,1.209071875,-1.621473074,9.891644478,0.978629947,-1.621473074,9.891644478,0.978629947,0.270544797,9.903017044,1.324592113,0.02932897,13.55058289,1.59932673,0.02932897,13.55058289,1.59932673,2.740762472,10.61349583,2.468421936,2.740762472,10.61349583,2.468421936,3.081936121,8.5191679,2.794033289,3.081936121,8.5191679,2.794033289,1.509544134,5.68682766,4.94642067,1.509544134,5.68682766,4.94642067,1.451484799,8.477270126,7.301716805,0.143053547,5.078700542,-0.507570744,0.143053547,5.078700542,-0.507570744,1.626860023,9.566033363,0.240617275,1.626860023,9.566033363,0.240617275,-2.315791607,9.668384552,1.792060018,-2.315791607,9.668384552,1.792060018,-0.457891077,10.60930634,0.664390981,-0.457891077,10.60930634,0.664390981,0.572812736,9.649829865,0.727238774,-0.328604192,8.70172596,2.291849613,-0.328604192,8.70172596,2.291849613,2.016516447,7.481281757,5.625176907,2.016516447,7.481281757,5.625176907,-0.306457818,9.876680374,6.212953568,-0.306457818,9.876680374,6.212953568,5.526416302,14.10005283,3.508104086,5.526416302,14.10005283,3.508104086,-0.896628559,12.22419548,0.356736064,1.681926727,8.85196209,3.366247654,1.681926727,8.85196209,3.366247654,0.831985116,9.484629631,0.952293754,0.831985116,9.484629631,0.952293754,0.015562311,12.19845772,0.671573579,Walking
2,0.015562311,12.19845772,0.671573579,4.619612217,9.859322548,2.603694439,4.619612217,9.859322548,2.603694439,2.137423515,6.891110897,2.433107376,-0.636259079,8.684368134,3.476979494,-0.636259079,8.684368134,3.476979494,1.268328309,8.488043785,4.856039524,1.268328309,8.488043785,4.856039524,2.114678621,7.477091789,-0.466869324,2.114678621,7.477091789,-0.466869324,-3.45722723,9.274538994,0.699106872,-3.45722723,9.274538994,0.699106872,0.403422982,10.16637897,-0.022744916,1.646013618,9.095572472,1.323395014,1.646013618,9.095572472,1.323395014,1.556231141,10.51653099,1.995567083,1.556231141,10.51653099,1.995567083,1.926733851,9.326612473,1.423951507,1.926733851,9.326612473,1.423951507,1.41257906,8.774150848,3.547608376,1.41257906,8.774150848,3.547608376,-0.478840351,8.197148323,2.82695365,0.89004451,7.705139637,4.629787445,0.89004451,7.705139637,4.629787445,2.058414936,7.050325394,0.307654917,2.058414936,7.050325394,0.307654917,0.585980892,9.606734276,1.086967587,0.585980892,9.606734276,1.086967587,-0.127491236,9.62469101,0.979228497,-0.127491236,9.62469101,0.979228497,0.161608621,9.613917351,1.026513934,-0.467467874,11.11987019,0.918176353,-0.467467874,11.11987019,0.918176353,3.101688385,8.605359077,2.407369852,3.101688385,8.605359077,2.407369852,0.20530279,9.43614769,2.522890091,0.20530279,9.43614769,2.522890091,1.021725535,6.341042995,4.855441093,1.021725535,6.341042995,4.855441093,0.210689753,9.391854286,7.335235596,8.653243065,15.97411346,0.723048925,8.653243065,15.97411346,0.723048925,-5.032013416,11.70465374,4.862623692,-5.032013416,11.70465374,4.862623692,0.637456179,9.577404976,0.479438901,0.637456179,9.577404976,0.479438901,1.625064373,9.676764488,1.095347285,1.625064373,9.676764488,1.095347285,-1.990778685,12.299613,1.159392118,4.030638695,11.54304504,4.792593479,Walking
3,4.030638695,11.54304504,4.792593479,3.851073503,7.12993288,3.293823004,3.851073503,7.12993288,3.293823004,0.685938776,6.912060261,5.436035156,0.685938776,6.912060261,5.436035156,1.641823769,6.965331078,5.349843502,2.283469915,4.876390457,-2.967014551,2.283469915,4.876390457,-2.967014551,2.541445017,8.73704052,0.872087955,2.541445017,8.73704052,0.872087955,0.745793819,10.02033234,2.065597534,0.745793819,10.02033234,2.065597534,-0.472854823,9.21528244,2.053027868,-0.472854823,9.21528244,2.053027868,2.659359455,8.067861557,1.596333981,0.568024337,7.824251175,1.128267527,0.568024337,7.824251175,1.128267527,0.902015507,6.623558998,3.757101059,0.902015507,6.623558998,3.757101059,-1.270722508,8.826224327,4.600458622,-1.270722508,8.826224327,4.600458622,2.026691675,9.47146225,7.091625214,2.026691675,9.47146225,7.091625214,-1.277905107,9.661801338,0.572812736,-0.211886853,10.40879154,1.097741485,-0.211886853,10.40879154,1.097741485,0.686537325,9.37449646,2.281075716,0.686537325,9.37449646,2.281075716,1.565807939,9.543288231,1.094150186,1.565807939,9.543288231,1.094150186,2.621052265,9.655815125,2.319981337,2.621052265,9.655815125,2.319981337,0.312443316,9.664195061,3.12383461,-0.74339962,9.06205368,4.3897686,-0.74339962,9.06205368,4.3897686,0.303465068,7.473500729,6.115988255,0.303465068,7.473500729,6.115988255,4.104260445,6.811503887,1.137844324,4.104260445,6.811503887,1.137844324,2.302024841,9.35953331,1.48679924,2.302024841,9.35953331,1.48679924,-0.380079508,9.275136948,1.405994892,0.461482376,10.02332497,1.335366011,0.461482376,10.02332497,1.335366011,-1.048660398,11.8722477,3.241749048,-1.048660398,11.8722477,3.241749048,3.743334293,10.48959637,1.623268723,3.743334293,10.48959637,1.623268723,4.095282078,6.369773388,5.443217754,4.095282078,6.369773388,5.443217754,Walking
4,-0.515351892,7.770381451,6.241085052,0.079607204,10.28668785,6.664858818,0.079607204,10.28668785,6.664858818,3.611054659,16.06509399,-4.617218018,3.611054659,16.06509399,-4.617218018,0.281917244,9.381080627,3.867832899,0.281917244,9.381080627,3.867832899,1.470039845,8.904036522,2.034472942,1.470039845,8.904036522,2.034472942,-0.767341673,9.703101158,2.60189867,3.734356165,9.51276207,2.296638012,3.734356165,9.51276207,2.296638012,1.308431268,8.313266754,1.793855667,1.308431268,8.313266754,1.793855667,-0.081402861,5.670068264,3.216609955,-0.081402861,5.670068264,3.216609955,-0.587776542,7.762600422,6.114192486,-0.587776542,7.762600422,6.114192486,0.021547815,1.403002143,1.557428241,4.233547211,9.196128845,0.327407092,4.233547211,9.196128845,0.327407092,1.85849905,9.820416451,1.496376038,1.85849905,9.820416451,1.496376038,-0.380079508,10.0855751,0.66858083,-0.380079508,10.0855751,0.66858083,1.608903527,10.40041256,0.688931525,1.608903527,10.40041256,0.688931525,3.220201254,6.986878872,0.140060797,1.716642618,8.282142639,3.210026026,1.716642618,8.282142639,3.210026026,0.670975029,9.372700691,4.843470097,0.670975029,9.372700691,4.843470097,2.56478858,8.195352554,5.563526154,2.56478858,8.195352554,5.563526154,-0.260968,9.960477829,1.333570361,-0.260968,9.960477829,1.333570361,1.778293371,9.261969566,1.217451572,2.099714994,8.978256226,1.406593442,2.099714994,8.978256226,1.406593442,1.788468719,9.169194221,2.237980127,1.788468719,9.169194221,2.237980127,1.259948611,11.2982378,2.518101692,1.259948611,11.2982378,2.518101692,0.738012671,7.618350029,0.997783542,0.738012671,7.618350029,0.997783542,0.721253276,7.828441143,4.663905144,-1.517923832,7.645883083,4.393958569,-1.517923832,7.645883083,4.393958569,3.001730442,14.02463531,6.039972305,3.001730442,14.02463531,6.039972305,Walking
5,2.266111851,11.79144382,0.118512981,2.266111851,11.79144382,0.118512981,-0.04189853,9.431359291,2.259527922,-0.04189853,9.431359291,2.259527922,1.617283225,9.419387817,1.959055543,0.37169981,10.13226128,1.331774712,0.37169981,10.13226128,1.331774712,-1.118690729,10.52550888,0.834977865,-1.118690729,10.52550888,0.834977865,-1.324592113,7.794323444,0.956483603,-1.324592113,7.794323444,0.956483603,1.122282028,7.372944355,3.555389643,1.122282028,7.372944355,3.555389643,-0.367509961,9.350554466,6.349422932,7.038354397,14.72493935,3.357867956,7.038354397,14.72493935,3.357867956,-3.855861902,13.43925285,6.412270546,-3.855861902,13.43925285,6.412270546,0.951695204,9.500790596,1.617283225,0.951695204,9.500790596,1.617283225,0.761356115,9.008183479,1.146822572,0.761356115,9.008183479,1.146822572,-0.423175156,10.14542961,2.090138197,4.641758442,9.845556259,2.444479942,4.641758442,9.845556259,2.444479942,1.360505104,7.940968513,1.238400817,1.360505104,7.940968513,1.238400817,1.18872118,7.024587631,3.538031578,1.18872118,7.024587631,3.538031578,0.500986695,8.443750381,6.238690853,0.500986695,8.443750381,6.238690853,6.595427036,14.08448982,0.682946026,-4.223970413,12.61684418,9.104550362,-4.223970413,12.61684418,9.104550362,2.764704466,8.750208855,2.251148224,2.764704466,8.750208855,2.251148224,1.460463047,8.890868187,0.902015507,1.460463047,8.890868187,0.902015507,-1.878849745,10.46146393,1.22822547,-1.878849745,10.46146393,1.22822547,3.45722723,8.379107475,2.26970315,0.745793819,9.723451614,3.142988205,0.745793819,9.723451614,3.142988205,2.061407566,5.702389717,4.036025524,2.061407566,5.702389717,4.036025524,-0.841561913,8.709506989,6.265027523,-0.841561913,8.709506989,6.265027523,8.850166321,15.03917789,1.485003591,8.850166321,15.03917789,1.485003591,-4.010287762,9.012373924,10.32439613,Walking
6,-0.330399841,8.571840286,0.525527298,-0.330399841,8.571840286,0.525527298,0.08499416,9.800664902,1.936310649,0.08499416,9.800664902,1.936310649,-0.586579442,10.72722054,2.415150881,-0.586579442,10.72722054,2.415150881,5.631761074,13.56075859,4.098274708,5.631761074,13.56075859,4.098274708,2.965218782,7.041347027,0.741603971,1.18812263,6.213551998,3.989338636,1.18812263,6.213551998,3.989338636,1.839345455,7.453748226,5.589263916,1.839345455,7.453748226,5.589263916,2.092532396,5.049371243,5.16549015,2.092532396,5.049371243,5.16549015,1.289876223,9.509170532,0.357334614,-1.653196216,9.951498985,0.320823014,-1.653196216,9.951498985,0.320823014,0.763151765,9.585784912,1.163581967,0.763151765,9.585784912,1.163581967,-0.245405674,11.82496262,1.11450088,-0.245405674,11.82496262,1.11450088,5.736507416,12.77486134,4.881777287,5.736507416,12.77486134,4.881777287,3.224989653,7.269993305,2.497152328,0.842759013,7.092224121,5.209783077,0.842759013,7.092224121,5.209783077,1.164180517,7.939771175,5.407903194,1.164180517,7.939771175,5.407903194,0.864905357,5.100248337,3.312378168,0.864905357,5.100248337,3.312378168,-2.00693965,9.24461174,0.311246216,-2.00693965,9.24461174,0.311246216,0.227449164,10.24119759,0.814028561,1.513135433,9.446921349,1.166574836,1.513135433,9.446921349,1.166574836,0.684741676,9.52772522,0.749385118,0.684741676,9.52772522,0.749385118,5.694608688,9.43914032,3.060986757,5.694608688,9.43914032,3.060986757,2.249352455,8.175002098,2.11946702,2.249352455,8.175002098,2.11946702,3.897161722,9.02973175,3.769670486,2.090138197,7.612364292,4.134786129,2.090138197,7.612364292,4.134786129,1.480215192,11.19289303,5.966948986,1.480215192,11.19289303,5.966948986,2.493561029,10.79964542,3.559579372,2.493561029,10.79964542,3.559579372,1.446696401,9.223063469,0.938527048,Walking
7,1.446696401,9.223063469,0.938527048,-0.347159237,9.937732697,0.278924495,-0.585382342,10.17116737,1.273715258,-0.585382342,10.17116737,1.273715258,0.441730201,12.17152309,1.148618221,0.441730201,12.17152309,1.148618221,3.177704096,8.570643425,0.237624526,3.177704096,8.570643425,0.237624526,4.044404984,6.695384979,3.949235678,4.044404984,6.695384979,3.949235678,-0.628477931,7.204153061,6.545148849,2.370858192,7.183802128,6.35421133,2.370858192,7.183802128,6.35421133,0.852335811,6.638522625,-3.04841733,0.852335811,6.638522625,-3.04841733,2.56778121,8.921394348,1.979406238,2.56778121,8.921394348,1.979406238,0.995987892,9.642647743,2.255337954,0.995987892,9.642647743,2.255337954,0.690727174,8.871714592,0.547673643,-0.537498295,13.22138023,1.9333179,-0.537498295,13.22138023,1.9333179,3.242946148,11.15039539,1.696890473,3.242946148,11.15039539,1.696890473,5.976525784,6.823474884,4.38917017,5.976525784,6.823474884,4.38917017,-0.137068048,7.009624004,5.292382717,-0.137068048,7.009624004,5.292382717,1.966238141,5.612008572,5.308543682,2.080561161,5.449801445,-1.332373261,2.080561161,5.449801445,-1.332373261,1.689707875,9.224859238,2.286462545,1.689707875,9.224859238,2.286462545,0.107140526,9.087791443,1.762730956,0.107140526,9.087791443,1.762730956,-0.146046311,11.0624094,1.973420739,-0.146046311,11.0624094,1.973420739,-1.062427044,11.53346825,1.949478745,3.811569214,8.271368027,3.380014181,3.811569214,8.271368027,3.380014181,1.624465823,8.463502884,1.37546885,1.624465823,8.463502884,1.37546885,0.769735873,6.50444746,3.746925592,0.769735873,6.50444746,3.746925592,1.141435623,9.989806175,6.771999359,1.141435623,9.989806175,6.771999359,8.362347603,14.74349403,7.191583157,-4.747103214,13.22556973,5.959167957,-4.747103214,13.22556973,5.959167957,-1.010951638,9.494805336,1.365892053,Walking
8,-1.010951638,9.494805336,1.365892053,0.15023616,9.515155792,1.238999367,0.15023616,9.515155792,1.238999367,-1.416768909,10.63743782,1.595735431,-1.416768909,10.63743782,1.595735431,3.956418276,8.525154114,1.37666595,0.417189658,8.680178642,1.165976286,0.417189658,8.680178642,1.165976286,-0.653018534,7.529165745,4.890755653,-0.653018534,7.529165745,4.890755653,2.509721994,8.045116425,6.833650112,2.509721994,8.045116425,6.833650112,2.505532026,4.104260445,0.708683729,2.505532026,4.104260445,0.708683729,1.82258606,9.181763649,-0.005985504,0.82001406,9.475651741,1.643619418,0.82001406,9.475651741,1.643619418,0.140659347,9.473855972,0.144250646,0.140659347,9.473855972,0.144250646,1.400009394,10.31781197,0.736815572,1.400009394,10.31781197,0.736815572,0.460883826,8.451532364,0.458489627,0.460883826,8.451532364,0.458489627,3.588309765,7.205349922,4.133589268,-1.061229944,8.135497093,5.980117321,-1.061229944,8.135497093,5.980117321,1.507748485,7.885303497,5.035604954,1.507748485,7.885303497,5.035604954,1.00496614,8.273762703,-4.57771349,1.00496614,8.273762703,-4.57771349,4.039018154,8.946533203,2.240972757,4.039018154,8.946533203,2.240972757,0.475249052,9.654019356,1.04087913,1.159990668,9.971850395,0.794874966,1.159990668,9.971850395,0.794874966,-0.351947635,12.36305904,0.180762231,-0.351947635,12.36305904,0.180762231,3.894767523,10.38664532,2.494159698,3.894767523,10.38664532,2.494159698,0.946906745,8.225878716,3.063979626,0.946906745,8.225878716,3.063979626,0.701501071,6.940790653,4.599860191,0.878073454,8.795100212,7.339425087,0.878073454,8.795100212,7.339425087,1.953668594,3.27167654,2.949058056,1.953668594,3.27167654,2.949058056,0.531512797,9.879673004,-1.031302333,0.531512797,9.879673004,-1.031302333,1.07679224,9.986813545,1.18752408,1.07679224,9.986813545,1.18752408,Walking
9,1.736993313,9.748590469,0.839167714,1.29945302,10.99596977,-0.314238966,1.29945302,10.99596977,-0.314238966,1.223437071,9.459490776,2.137423515,1.223437071,9.459490776,2.137423515,2.698265314,8.036736488,2.606088638,2.698265314,8.036736488,2.606088638,1.204882026,8.778939247,3.153762102,1.204882026,8.778939247,3.153762102,0.315436065,8.50420475,4.374206543,3.257311344,8.271966934,0.988805294,3.257311344,8.271966934,0.988805294,-0.59615624,8.950124741,0.489015698,-0.59615624,8.950124741,0.489015698,0.192733243,10.04188061,1.345541358,0.192733243,10.04188061,1.345541358,0.553659141,9.441534042,-0.172382519,-0.578199685,9.772532463,0.279523045,-0.578199685,9.772532463,0.279523045,-0.624886632,11.32158089,-0.809838712,-0.624886632,11.32158089,-0.809838712,0.533906996,8.653243065,-0.14903906,0.533906996,8.653243065,-0.14903906,1.997961283,7.365761757,3.573346138,1.997961283,7.365761757,3.573346138,0.612317085,7.272387505,5.283404827,2.625840664,10.29267311,5.564723492,2.625840664,10.29267311,5.564723492,1.865681648,12.5258646,-0.20410569,1.865681648,12.5258646,-0.20410569,2.293645144,8.361749649,3.244741917,2.293645144,8.361749649,3.244741917,1.456871748,9.26256752,1.720233917,1.456871748,9.26256752,1.720233917,-0.513556242,9.943120003,0.566228688,3.679289579,9.190741539,1.006761789,3.679289579,9.190741539,1.006761789,-0.29568392,8.916007042,2.859275341,-0.29568392,8.916007042,2.859275341,0.352546215,6.369773388,4.136581898,0.352546215,6.369773388,4.136581898,0.435146153,9.643844604,6.791152954,0.435146153,9.643844604,6.791152954,1.294066072,4.078522682,2.466626406,0.223259315,9.119514465,-0.034715924,0.223259315,9.119514465,-0.034715924,-0.635660529,9.490615845,0.907402456,-0.635660529,9.490615845,0.907402456,0.565630138,9.567828178,0.943315446,0.565630138,9.567828178,0.943315446,Walking
10,-1.289876223,12.25472164,-0.172981068,-1.289876223,12.25472164,-0.172981068,4.594472885,10.82059479,1.82019186,4.542997837,7.609371662,3.356670856,4.542997837,7.609371662,3.356670856,1.035492182,6.373364925,5.032013416,1.035492182,6.373364925,5.032013416,0.070030399,8.121730804,5.069123745,0.070030399,8.121730804,5.069123745,4.547187805,11.11567974,-3.926490784,4.547187805,11.11567974,-3.926490784,1.695693374,8.992023468,2.051232338,1.874659896,9.563638687,0.393846184,1.874659896,9.563638687,0.393846184,0.460285276,10.32559299,1.330577612,0.460285276,10.32559299,1.330577612,3.156754971,8.890269279,1.483207941,3.156754971,8.890269279,1.483207941,0.386065036,8.911218643,2.919728994,0.386065036,8.911218643,2.919728994,0.491409898,7.323264599,3.187281132,0.654814184,10.22922707,6.658873558,0.654814184,10.22922707,6.658873558,7.500435352,15.49527359,1.274313807,7.500435352,15.49527359,1.274313807,0.499191046,11.23778439,2.992752075,0.499191046,11.23778439,2.992752075,1.091157436,9.664195061,1.778293371,1.091157436,9.664195061,1.778293371,1.307234168,8.679579735,0.697909772,-0.615908384,11.76211452,0.308253467,-0.615908384,11.76211452,0.308253467,4.885368347,11.53945351,2.514510393,4.885368347,11.53945351,2.514510393,1.629254222,7.762001991,2.068590164,1.629254222,7.762001991,2.068590164,0.89184016,6.154893875,4.261080265,0.89184016,6.154893875,4.261080265,1.578377485,8.066663742,7.031770229,3.907337189,9.904812813,2.785055161,3.907337189,9.904812813,2.785055161,-2.67731595,11.46583176,1.164180517,-2.67731595,11.46583176,1.164180517,0.530315697,9.883264542,1.517923832,0.530315697,9.883264542,1.517923832,0.751779318,9.440936089,1.045069098,0.751779318,9.440936089,1.045069098,0.171185419,9.475052834,1.194706678,3.036446333,8.413225174,1.814206362,3.036446333,8.413225174,1.814206362,Walking
11,0.119710088,8.673594475,3.126228809,0.119710088,8.673594475,3.126228809,0.377086759,7.402871609,3.687070608,0.377086759,7.402871609,3.687070608,1.120486379,7.895478725,4.12640667,1.120486379,7.895478725,4.12640667,5.754463673,14.36820316,2.075174332,1.047463298,9.924564362,2.07996273,1.047463298,9.924564362,2.07996273,1.919551253,9.806051254,2.118868589,1.919551253,9.806051254,2.118868589,1.936909199,9.834781647,1.18872118,1.936909199,9.834781647,1.18872118,1.230021119,9.9526968,0.807444513,1.230021119,9.9526968,0.807444513,2.895787001,9.697115898,0.863708258,3.571550369,7.781155586,2.176329374,3.571550369,7.781155586,2.176329374,3.12383461,8.819042206,2.584540844,3.12383461,8.819042206,2.584540844,2.797624588,8.723274231,4.025850296,2.797624588,8.723274231,4.025850296,3.001730442,11.62265205,6.184223175,1.00556469,10.68891335,0.055066638,1.00556469,10.68891335,0.055066638,2.091335297,9.740809441,2.185307503,2.091335297,9.740809441,2.185307503,0.464475125,9.3391819,0.882263303,0.464475125,9.3391819,0.882263303,0.638653278,11.03906536,2.127248287,0.638653278,11.03906536,2.127248287,0.460883826,9.839570045,0.814627111,1.622071624,8.345588684,1.698686123,1.622071624,8.345588684,1.698686123,1.533486247,7.182006359,3.839700937,1.533486247,7.182006359,3.839700937,-0.871489406,8.982446671,4.968566895,-0.871489406,8.982446671,4.968566895,3.645172119,9.945513725,5.816712856,3.645172119,9.945513725,5.816712856,2.177526474,13.21659184,-0.355538964,3.732560396,8.160037994,2.758120298,3.732560396,8.160037994,2.758120298,1.407191992,9.241020203,2.097320795,1.407191992,9.241020203,2.097320795,1.656787634,9.786897659,0.562637389,1.656787634,9.786897659,0.562637389,-1.422155857,12.67669964,-0.574608386,-1.422155857,12.67669964,-0.574608386,1.595735431,10.19510937,0.461482376,Walking
12,5.111620426,7.010821342,3.327940464,5.111620426,7.010821342,3.327940464,-0.008379706,6.534973621,5.31213522,-0.008379706,6.534973621,5.31213522,3.689464808,6.246472359,4.727949619,3.689464808,6.246472359,4.727949619,2.717418909,9.337387085,-4.034828186,2.717418909,9.337387085,-4.034828186,3.312976599,8.941744804,2.278082848,0.957082152,10.29806042,1.424550056,0.957082152,10.29806042,1.424550056,-0.103549227,10.32439613,-0.192134693,-0.103549227,10.32439613,-0.192134693,-0.243610024,12.50431728,0.687734425,-0.243610024,12.50431728,0.687734425,0.620098233,8.395866394,-0.852335811,0.620098233,8.395866394,-0.852335811,4.948216438,7.757812023,3.801393747,0.694917023,7.240066051,4.140173435,0.694917023,7.240066051,4.140173435,4.013280392,7.760804653,3.872621298,4.013280392,7.760804653,3.872621298,2.430114746,10.77390766,-3.810970545,2.430114746,10.77390766,-3.810970545,4.010287762,9.99399662,3.229778051,4.010287762,9.99399662,3.229778051,1.343147159,9.711481094,0.883460402,0.93014735,10.7385931,1.596333981,0.93014735,10.7385931,1.596333981,1.630451322,8.916605949,0.869693756,1.630451322,8.916605949,0.869693756,1.769913554,9.389460564,2.97359848,1.769913554,9.389460564,2.97359848,1.713051319,5.767632008,4.086902142,1.713051319,5.767632008,4.086902142,0.499789596,11.25035381,7.817667007,6.537367821,8.421604156,4.800374508,6.537367821,8.421604156,4.800374508,1.913565755,8.913014412,1.016338587,1.913565755,8.913014412,1.016338587,1.319205165,8.962694168,0.713472128,1.319205165,8.962694168,0.713472128,0.008379706,10.93252373,0.695515573,1.658583283,9.086593628,1.156399369,1.658583283,9.086593628,1.156399369,-0.89303726,8.297704697,1.903390408,-0.89303726,8.297704697,1.903390408,2.152985811,7.562684536,5.355230808,2.152985811,7.562684536,5.355230808,-1.176151633,10.72602367,5.798756599,Walking
13,-1.176151633,10.72602367,5.798756599,7.323264599,11.96562195,3.758896589,-3.299808502,11.74355888,0.93014735,-3.299808502,11.74355888,0.93014735,3.169923067,9.349357605,2.728791475,3.169923067,9.349357605,2.728791475,2.876034737,9.226056099,1.019331336,2.876034737,9.226056099,1.019331336,0.674566329,9.843161583,-0.072424598,0.674566329,9.843161583,-0.072424598,6.523601055,9.834183693,1.883039594,1.632845521,9.668384552,0.20410569,1.632845521,9.668384552,0.20410569,2.56478858,9.326612473,2.671929121,2.56478858,9.326612473,2.671929121,1.224035621,8.851364136,2.965218782,1.224035621,8.851364136,2.965218782,2.946663857,8.755595207,3.056198359,2.946663857,8.755595207,3.056198359,-1.149815321,11.15518475,-0.413598329,0.480037451,9.973047256,0.527322948,0.480037451,9.973047256,0.527322948,0.08379706,9.046490669,0.158017308,0.08379706,9.046490669,0.158017308,0.44711718,10.09395409,1.533486247,0.44711718,10.09395409,1.533486247,3.27107811,9.038709641,2.193687201,3.27107811,9.038709641,2.193687201,0.924161851,9.388861656,2.812588453,1.042076349,6.559514046,2.477998734,1.042076349,6.559514046,2.477998734,0.44532153,8.825626373,7.107187748,0.44532153,8.825626373,7.107187748,1.155800819,3.964797974,1.097142935,1.155800819,3.964797974,1.097142935,1.241992116,9.158419609,0.880467653,1.241992116,9.158419609,0.880467653,0.275333196,9.585784912,1.862688899,1.699284673,9.968258858,0.546476543,1.699284673,9.968258858,0.546476543,-1.523310781,11.77468395,0.397437483,-1.523310781,11.77468395,0.397437483,-1.134851575,7.414244175,0.682347476,-1.134851575,7.414244175,0.682347476,3.79181695,6.87016201,4.569932461,3.79181695,6.87016201,4.569932461,-0.442927301,10.12807178,7.120954514,3.765480757,12.48636055,5.956175327,3.765480757,12.48636055,5.956175327,-2.103306293,14.67645645,4.647145271,Walking
14,-2.103306293,14.67645645,4.647145271,1.023521185,9.874884605,2.013523579,1.023521185,9.874884605,2.013523579,0.955885053,8.464101791,0.666785181,0.955885053,8.464101791,0.666785181,-2.191293001,10.49618053,3.357867956,6.76960516,14.10903072,4.349067211,6.76960516,14.10903072,4.349067211,2.04584527,7.980473042,-0.266953498,2.04584527,7.980473042,-0.266953498,1.247379065,3.8654387,5.920860767,1.247379065,3.8654387,5.920860767,-0.466270775,7.398681641,4.973954201,-0.466270775,7.398681641,4.973954201,2.884414434,3.395576477,1.371877551,-0.579396784,7.8733325,3.49254179,-0.579396784,7.8733325,3.49254179,0.399233133,9.03272438,1.049258947,0.399233133,9.03272438,1.049258947,-0.369305611,10.4973774,1.385045648,-0.369305611,10.4973774,1.385045648,3.072957993,7.54831934,0.473453373,3.072957993,7.54831934,0.473453373,-0.08379706,9.22426033,2.306214809,0.943315446,5.243301868,3.685873508,0.943315446,5.243301868,3.685873508,-0.114323132,9.28890419,6.548740387,-0.114323132,9.28890419,6.548740387,2.000355482,5.322908878,-0.955885053,2.000355482,5.322908878,-0.955885053,1.854309201,8.610147476,1.389235497,1.854309201,8.610147476,1.389235497,0.608127236,9.804255486,1.56101954,0.59256494,10.22383976,1.352723956,0.59256494,10.22383976,1.352723956,-1.036689281,11.84710884,0.467467874,-1.036689281,11.84710884,0.467467874,1.095945835,8.106168747,-0.246602774,1.095945835,8.106168747,-0.246602774,4.380191803,7.187393665,4.282029629,-0.283712894,7.747038364,4.734533787,-0.283712894,7.747038364,4.734533787,1.656189084,7.13292551,4.361637115,1.656189084,7.13292551,4.361637115,3.728969097,5.698798656,-1.321000814,3.728969097,5.698798656,-1.321000814,3.302801132,9.278130531,0.258573771,3.302801132,9.278130531,0.258573771,0.376488209,10.26394272,1.809417963,0.978031397,10.08318043,1.565209389,Walking
15,0.978031397,10.08318043,1.565209389,1.551442742,11.11089134,0.857722759,1.551442742,11.11089134,0.857722759,4.233547211,7.724293232,2.014720678,4.233547211,7.724293232,2.014720678,1.787870169,8.391676903,2.594117641,1.787870169,8.391676903,2.594117641,0.952892303,8.898050308,4.114435673,-0.037708677,8.441356659,5.776610374,-0.037708677,8.441356659,5.776610374,4.083311081,7.937975883,0.718260527,4.083311081,7.937975883,0.718260527,1.974617839,8.990227699,-0.265756398,1.974617839,8.990227699,-0.265756398,-0.01316811,9.867103577,0.642843127,-0.01316811,9.867103577,0.642843127,0.106541976,9.055469513,1.15340662,1.731606364,10.14602852,0.751779318,1.731606364,10.14602852,0.751779318,2.395398855,7.777564049,1.33895731,2.395398855,7.777564049,1.33895731,0.821211159,9.662399292,3.336320162,0.821211159,9.662399292,3.336320162,2.127248287,6.750451565,2.808398485,-0.63386488,11.18331623,8.306084633,-0.63386488,11.18331623,8.306084633,8.35696125,15.20258236,1.051653147,8.35696125,15.20258236,1.051653147,-3.851671934,14.16768837,5.856815815,-3.851671934,14.16768837,5.856815815,1.59812963,8.786121368,2.027290344,1.59812963,8.786121368,2.027290344,-0.246602774,9.20929718,0.805648863,-1.417367458,14.64473343,1.593939781,-1.417367458,14.64473343,1.593939781,7.997830868,13.3315134,3.878606796,7.997830868,13.3315134,3.878606796,4.68724823,6.587047577,3.508702517,4.68724823,6.587047577,3.508702517,-0.030526072,7.377133846,5.744886875,-0.030526072,7.377133846,5.744886875,0.870292306,8.421006203,6.683413982,2.252345324,3.367444754,2.076371431,2.252345324,3.367444754,2.076371431,1.664568782,8.620323181,0.900219858,1.664568782,8.620323181,0.900219858,0.793079317,9.451709747,2.251148224,0.793079317,9.451709747,2.251148224,0.119710088,10.32200241,0.196324542,0.119710088,10.32200241,0.196324542,Walking
16,-0.125097036,13.85344982,0.568622887,0.309450567,8.024765968,-0.642843127,0.309450567,8.024765968,-0.642843127,4.659715176,6.347627163,2.643797159,4.659715176,6.347627163,2.643797159,-0.18555063,9.33020401,5.852027416,-0.18555063,9.33020401,5.852027416,0.89064306,9.124302864,6.68999815,0.89064306,9.124302864,6.68999815,2.282871246,13.67029285,-2.498349428,5.2415061,8.884284019,3.314173698,5.2415061,8.884284019,3.314173698,1.571194887,9.648034096,0.735019922,1.571194887,9.648034096,0.735019922,-0.495001197,10.97801304,1.399410844,-0.495001197,10.97801304,1.399410844,5.362413406,12.49713421,3.34529829,5.362413406,12.49713421,3.34529829,1.567603588,7.467514992,0.626083732,0.626682281,5.962759495,4.236539841,0.626682281,5.962759495,4.236539841,1.474828243,7.55131197,4.676474571,1.474828243,7.55131197,4.676474571,1.480215192,7.375338554,0.264559299,1.480215192,7.375338554,0.264559299,3.278859138,9.962871552,1.117493629,3.278859138,9.962871552,1.117493629,-0.009576807,9.703699112,0.815824211,2.318185806,9.038709641,0.889445961,2.318185806,9.038709641,0.889445961,-0.196324542,12.53424454,-0.049679685,-0.196324542,12.53424454,-0.049679685,3.804985046,11.90456963,2.203862667,3.804985046,11.90456963,2.203862667,3.360262156,7.063493729,1.881243944,3.360262156,7.063493729,1.881243944,0.274136096,5.991489887,7.549516678,2.217030764,8.129511833,5.388749599,2.217030764,8.129511833,5.388749599,3.355473757,10.05205631,3.265691042,3.355473757,10.05205631,3.265691042,-3.422511339,10.80323696,-0.092775315,-3.422511339,10.80323696,-0.092775315,2.470217705,9.790489197,2.33793807,2.470217705,9.790489197,2.33793807,2.370858192,8.850166321,0.639251828,1.48739779,9.719860077,1.59693253,1.48739779,9.719860077,1.59693253,2.97359848,9.040505409,2.774281263,2.97359848,9.040505409,2.774281263,Walking
17,2.409764051,7.987056732,-0.865503907,2.409764051,7.987056732,-0.865503907,3.186083794,8.963891029,4.180276394,3.186083794,8.963891029,4.180276394,0.973841548,8.249820709,5.146336555,2.953846455,6.396110058,5.639542103,2.953846455,6.396110058,5.639542103,10.94329739,12.26369953,8.897452354,10.94329739,12.26369953,8.897452354,-0.691325724,11.95963573,2.23139596,-0.691325724,11.95963573,2.23139596,0.954089403,10.0658226,2.254739523,0.954089403,10.0658226,2.254739523,1.591545582,9.411606789,1.584961534,0.346560687,10.27830791,0.517147541,0.346560687,10.27830791,0.517147541,-0.05925649,12.89217758,0.210091203,-0.05925649,12.89217758,0.210091203,4.338891983,10.98519611,0.550666392,4.338891983,10.98519611,0.550666392,3.697246075,7.025784969,2.401384354,3.697246075,7.025784969,2.401384354,-1.953070045,7.445967197,6.558915615,2.558803082,5.05296278,6.782773495,2.558803082,5.05296278,6.782773495,0.790086567,6.525995255,-1.808220863,0.790086567,6.525995255,-1.808220863,2.890399933,9.484629631,2.084751129,2.890399933,9.484629631,2.084751129,1.347935557,9.385869026,1.516128182,1.347935557,9.385869026,1.516128182,-0.05865794,9.985017776,0.721253276,-0.59316349,12.24514484,0.924760401,-0.59316349,12.24514484,0.924760401,-1.342548609,8.32463932,0.231639013,-1.342548609,8.32463932,0.231639013,2.86166954,6.310517311,5.397727966,2.86166954,6.310517311,5.397727966,-2.143409014,10.01315022,9.05906105,6.382941723,14.89193439,2.484582901,6.382941723,14.89193439,2.484582901,-2.063801765,15.96872711,4.734533787,-2.063801765,15.96872711,4.734533787,0.995987892,9.446322441,-0.007781155,0.995987892,9.446322441,-0.007781155,2.298433542,8.627506256,0.833182216,-1.844732404,12.6635313,0.797867715,-1.844732404,12.6635313,0.797867715,-1.844732404,12.6635313,0.797867715,5.147533417,13.84985828,3.295618534,Walking
18,3.769670486,5.729923248,2.711433411,3.769670486,5.729923248,2.711433411,0.172382519,5.843049049,4.102464676,0.172382519,5.843049049,4.102464676,3.854664803,6.566098213,4.327519417,3.854664803,6.566098213,4.327519417,2.499546528,8.69873333,-4.894346714,2.885013103,8.878896713,2.801814556,2.885013103,8.878896713,2.801814556,1.693299174,9.106945038,1.33895731,1.693299174,9.106945038,1.33895731,-0.398634583,10.60272217,-0.18555063,-0.398634583,10.60272217,-0.18555063,3.389590979,7.712322235,0.952892303,3.389590979,7.712322235,0.952892303,1.214458823,9.640253067,3.041833162,0.902015507,6.54574728,4.245518208,0.902015507,6.54574728,4.245518208,-0.494402647,8.590993881,6.554725647,-0.494402647,8.590993881,6.554725647,7.720103264,14.16948414,3.963002443,7.720103264,14.16948414,3.963002443,-2.373252392,11.68550014,2.742558002,-2.373252392,11.68550014,2.742558002,0.430956304,9.804255486,1.11629653,1.309029818,9.246406555,1.468842745,1.309029818,9.246406555,1.468842745,-0.053869538,13.414114,1.575384736,-0.053869538,13.414114,1.575384736,6.202777863,10.27711105,3.360262156,6.202777863,10.27711105,3.360262156,2.4893713,7.065887928,1.11450088,2.4893713,7.065887928,1.11450088,0.727837324,7.371148586,4.194042683,1.984194636,7.66084671,4.280832767,1.984194636,7.66084671,4.280832767,0.791283667,5.343259811,-3.451840401,0.791283667,5.343259811,-3.451840401,2.415150881,9.786897659,1.177947283,2.415150881,9.786897659,1.177947283,1.479616642,9.977835655,1.306635618,1.479616642,9.977835655,1.306635618,1.70946002,9.343372345,2.026691675,2.793434858,9.756970406,1.801636815,2.793434858,9.756970406,1.801636815,5.303755283,6.974309444,1.994369984,5.303755283,6.974309444,1.994369984,1.401805043,8.101978302,3.787626982,1.401805043,8.101978302,3.787626982,1.4502877,8.419210434,4.214393616,Walking
19,1.4502877,8.419210434,4.214393616,5.103240967,10.74757099,4.523844242,1.232415318,9.721057892,0.609922886,1.232415318,9.721057892,0.609922886,1.547851443,9.126098633,1.754351258,1.547851443,9.126098633,1.754351258,0.29867667,9.330802917,1.289876223,0.29867667,9.330802917,1.289876223,-0.08319851,11.27309895,-0.22146365,-0.08319851,11.27309895,-0.22146365,3.621230125,9.388263702,2.034472942,1.097741485,8.529942513,2.062604666,1.097741485,8.529942513,2.062604666,0.122104287,6.196194172,4.375403404,0.122104287,6.196194172,4.375403404,0.953490853,6.605602264,6.521805286,0.953490853,6.605602264,6.521805286,0.861314058,4.628590584,-2.106897593,0.861314058,4.628590584,-2.106897593,1.015740037,9.694122314,1.481412292,0.852934361,9.116521835,0.985213995,0.852934361,9.116521835,0.985213995,1.356913805,9.655815125,1.230619669,1.356913805,9.655815125,1.230619669,0.911592305,11.02529907,0.604535937,0.911592305,11.02529907,0.604535937,-0.973242998,9.234436035,0.775122821,-0.973242998,9.234436035,0.775122821,1.668160081,6.69598341,3.762487888,0.833182216,9.476250648,7.502829552,0.833182216,9.476250648,7.502829552,2.441487074,7.047931194,2.415150881,2.441487074,7.047931194,2.415150881,-5.102043629,10.43333244,1.426944256,-5.102043629,10.43333244,1.426944256,0.860116959,9.818621635,1.686116576,0.860116959,9.818621635,1.686116576,2.354098797,8.593987465,1.82198751,-1.877652645,11.34073448,1.633444071,-1.877652645,11.34073448,1.633444071,4.623802185,8.090007782,1.312621117,4.623802185,8.090007782,1.312621117,0.986411095,9.219471931,2.7509377,0.986411095,9.219471931,2.7509377,1.210867524,5.87297678,3.535637379,1.210867524,5.87297678,3.535637379,1.744774461,10.11550236,8.0229702,9.595960617,12.23257542,2.628833532,9.595960617,12.23257542,2.628833532,-0.436941803,9.203909874,0.243610024,Walking
20,-0.436941803,9.203909874,0.243610024,-0.505775094,9.92636013,0.099957921,-0.505775094,9.92636013,0.099957921,1.52690208,9.789890289,0.072424598,-1.552639842,13.84985828,-0.119111538,-1.552639842,13.84985828,-0.119111538,0.788290918,7.794323444,-0.316633165,0.788290918,7.794323444,-0.316633165,4.9494133,6.331466198,5.221754074,4.9494133,6.331466198,5.221754074,-1.081580639,8.127716064,5.765237808,-1.081580639,8.127716064,5.765237808,1.167771935,8.567650795,6.147711277,1.769913554,10.2968626,-3.967192173,1.769913554,10.2968626,-3.967192173,3.97796607,8.591592789,1.41138196,3.97796607,8.591592789,1.41138196,0.903811157,9.234436035,1.133055925,0.903811157,9.234436035,1.133055925,-0.253785372,9.820416451,-0.004788403,-0.253785372,9.820416451,-0.004788403,2.084751129,9.553462982,0.960673451,0.121505737,8.216899872,2.355894566,0.121505737,8.216899872,2.355894566,1.844732404,6.109404087,4.353257179,1.844732404,6.109404087,4.353257179,-3.845088005,9.958083153,6.296750546,-3.845088005,9.958083153,6.296750546,6.455965042,12.71500683,3.580528736,6.455965042,12.71500683,3.580528736,-4.251503468,11.96681881,1.231218219,2.777273893,8.934561729,2.802412987,2.777273893,8.934561729,2.802412987,2.507926226,9.351153374,1.97102654,2.507926226,9.351153374,1.97102654,0.726640224,9.408015251,0.688931525,0.726640224,9.408015251,0.688931525,3.175908566,9.473855972,1.272518158,5.477933407,7.702147007,2.312798738,5.477933407,7.702147007,2.312798738,3.807379246,7.035960197,1.156399369,3.807379246,7.035960197,1.156399369,0.416591108,8.405443192,4.096478939,0.416591108,8.405443192,4.096478939,0.590170741,7.357980251,4.524442673,0.590170741,7.357980251,4.524442673,5.281609058,7.173028469,2.442085743,5.281609058,7.173028469,2.442085743,2.04524684,9.328408241,1.143231273,0.502183795,9.835380554,1.379060149,Walking
21,0.502183795,9.835380554,1.379060149,0.797867715,9.354146004,1.414973259,0.797867715,9.354146004,1.414973259,0.550067842,9.970054626,1.398213744,0.550067842,9.970054626,1.398213744,4.188655853,9.269151688,2.781463861,4.188655853,9.269151688,2.781463861,2.543240786,9.431359291,3.670311213,0.921169102,6.036381245,3.709217072,0.921169102,6.036381245,3.709217072,1.953668594,12.26788998,6.670246124,1.953668594,12.26788998,6.670246124,2.93648839,9.093776703,1.968033791,2.93648839,9.093776703,1.968033791,-2.158372879,10.28549004,-0.415992558,-2.158372879,10.28549004,-0.415992558,0.073621705,9.971251488,0.615908384,0.974440098,8.880094528,0.442328751,0.974440098,8.880094528,0.442328751,-0.328005642,13.01787281,1.620275974,-0.328005642,13.01787281,1.620275974,4.045602322,14.14015484,4.336497784,4.045602322,14.14015484,4.336497784,2.923320293,7.310694695,1.674145579,2.923320293,7.310694695,1.674145579,0.509964943,6.050147533,5.705382824,2.728192806,6.721122742,5.193622112,2.728192806,6.721122742,5.193622112,1.869272947,12.15356636,-1.85969615,1.869272947,12.15356636,-1.85969615,3.145382404,8.310873032,2.627037764,3.145382404,8.310873032,2.627037764,1.240795016,9.497797966,0.771531522,0.757166266,10.09574986,-0.035314474,0.757166266,10.09574986,-0.035314474,1.205480576,8.723872185,0.582988143,1.205480576,8.723872185,0.582988143,-0.625485182,9.101557732,1.814206362,-0.625485182,9.101557732,1.814206362,0.970250249,7.420229435,2.448669672,0.970250249,7.420229435,2.448669672,0.583586693,7.396287441,4.632181644,-0.389656335,9.352949142,5.64552784,-0.389656335,9.352949142,5.64552784,1.982398987,10.4441061,-4.128800869,1.982398987,10.4441061,-4.128800869,4.199429989,8.683769226,2.915539026,4.199429989,8.683769226,2.915539026,0.778115571,9.329605103,1.214458823,0.778115571,9.329605103,1.214458823,Walking
22,0.93134445,9.579799652,-0.710479379,2.279878616,10.16099167,1.089361787,2.279878616,10.16099167,1.089361787,-0.465672225,8.256404877,1.583764434,-0.465672225,8.256404877,1.583764434,2.322375536,7.529165745,4.045602322,2.322375536,7.529165745,4.045602322,-1.343147159,9.379284859,6.182427406,-1.343147159,9.379284859,6.182427406,1.739387512,9.485827446,6.631938934,2.126649618,9.339780807,-3.685873508,2.126649618,9.339780807,-3.685873508,4.954800606,8.535328865,1.89740479,4.954800606,8.535328865,1.89740479,0.617105484,10.01255131,0.850540161,0.617105484,10.01255131,0.850540161,0.468664974,10.21725559,0.782903969,0.468664974,10.21725559,0.782903969,3.599682331,8.565855026,0.122702837,0.92775315,7.979275703,0.915782154,0.92775315,7.979275703,0.915782154,1.801038265,7.416638374,3.277063608,1.801038265,7.416638374,3.277063608,-1.170764685,8.345588684,4.484339714,-1.170764685,8.345588684,4.484339714,1.510142684,8.318055153,6.223128796,1.510142684,8.318055153,6.223128796,3.928884983,5.61021328,-1.007958889,3.009511471,9.312846184,1.011550188,3.009511471,9.312846184,1.011550188,1.29885447,10.00058079,1.532289028,1.29885447,10.00058079,1.532289028,1.291671872,10.05445004,1.854309201,1.291671872,10.05445004,1.854309201,1.900397658,11.04445267,0.939125597,1.900397658,11.04445267,0.939125597,6.347028732,8.593388557,2.400187254,0.957680702,10.02990913,2.410362482,0.957680702,10.02990913,2.410362482,2.431910276,7.185597897,3.739742994,2.431910276,7.185597897,3.739742994,2.163759708,8.736441612,5.451597214,2.163759708,8.736441612,5.451597214,4.745307922,8.393472672,1.610699177,4.745307922,8.393472672,1.610699177,1.000177741,9.205705643,-0.095768064,0.749983668,9.525930405,1.204283476,0.749983668,9.525930405,1.204283476,0.681748927,9.339780807,0.291494071,0.681748927,9.339780807,0.291494071,Walking
23,0.265157849,11.50054741,0.05925649,0.265157849,11.50054741,0.05925649,3.131615877,8.100781441,1.958456993,3.131615877,8.100781441,1.958456993,2.179920673,9.219471931,3.350086689,1.67175138,6.845022678,4.006696701,1.67175138,6.845022678,4.006696701,-0.880467653,9.219471931,5.545569897,-0.880467653,9.219471931,5.545569897,8.418611526,14.23233223,2.684498549,8.418611526,14.23233223,2.684498549,2.512116194,16.71511841,5.691017628,1.795651317,9.205705643,1.851316452,1.795651317,9.205705643,1.851316452,2.087743998,8.938752174,1.815403461,2.087743998,8.938752174,1.815403461,1.397615194,9.678560257,0.92775315,1.397615194,9.678560257,0.92775315,0.984016895,9.342773438,0.66798228,0.984016895,9.342773438,0.66798228,-0.78050977,9.190143585,0.464475125,1.757942557,7.358579159,3.933074951,1.757942557,7.358579159,3.933074951,-0.601543188,8.025363922,6.355408192,-0.601543188,8.025363922,6.355408192,6.588842869,13.19683933,5.118803024,6.588842869,13.19683933,5.118803024,-0.639251828,16.43559647,5.2391119,-0.639251828,16.43559647,5.2391119,0.896030009,9.293692589,2.516904593,2.11527729,9.691728592,1.48739779,2.11527729,9.691728592,1.48739779,-1.41257906,9.903017044,-1.103128433,-1.41257906,9.903017044,-1.103128433,3.594893932,8.678382874,0.718859076,3.594893932,8.678382874,0.718859076,0.441131651,9.48044014,2.144007683,0.441131651,9.48044014,2.144007683,1.333570361,7.307702065,4.05039072,-2.208651066,8.257002831,5.642534733,-2.208651066,8.257002831,5.642534733,4.313753128,12.57315063,3.599682331,4.313753128,12.57315063,3.599682331,-2.737769604,12.47019958,0.661996782,-2.737769604,12.47019958,0.661996782,1.912967205,10.00297451,1.421557307,1.616684675,8.992621422,1.229422569,1.616684675,8.992621422,1.229422569,-0.600944638,14.12339592,2.04704237,-0.600944638,14.12339592,2.04704237,Walking
24,4.916493416,12.58332539,4.560954094,4.916493416,12.58332539,4.560954094,3.250128746,7.240066051,1.696890473,3.250128746,7.240066051,1.696890473,0.790086567,5.957372189,4.430470467,0.02873042,8.802881241,4.635174274,0.02873042,8.802881241,4.635174274,4.523844242,8.50121212,-5.144540787,4.523844242,8.50121212,-5.144540787,2.74914217,8.922591209,1.109113932,2.74914217,8.922591209,1.109113932,0.352546215,9.749189377,1.386242747,0.352546215,9.749189377,1.386242747,1.535281897,9.597756386,-0.074220255,2.476203203,9.610325813,0.664390981,2.476203203,9.610325813,0.664390981,0.20350714,7.66084671,0.787692368,0.20350714,7.66084671,0.787692368,3.699041605,7.525574684,3.721188068,3.699041605,7.525574684,3.721188068,-0.435146153,8.196549416,5.975328922,-0.435146153,8.196549416,5.975328922,2.715623379,8.828020096,5.554547787,3.19865346,8.723274231,-1.009155989,3.19865346,8.723274231,-1.009155989,4.16531229,8.854356766,0.16639702,4.16531229,8.854356766,0.16639702,1.33776021,9.835380554,1.247977614,1.33776021,9.835380554,1.247977614,0.627879381,10.5219183,0.225054964,0.627879381,10.5219183,0.225054964,2.779668093,10.72063637,3.303998232,3.382408381,7.779359818,1.540668845,3.382408381,7.779359818,1.540668845,5.13256979,7.632715225,3.913921118,5.13256979,7.632715225,3.913921118,2.294243813,7.505223751,5.506663799,2.294243813,7.505223751,5.506663799,4.279635429,11.55741024,5.217564106,4.279635429,11.55741024,5.217564106,2.707842112,9.45111084,2.684498549,1.641823769,9.321824074,1.521515131,1.641823769,9.321824074,1.521515131,0.350151986,9.976039886,1.012148738,0.350151986,9.976039886,1.012148738,0.566827238,9.704896927,0.670975029,0.566827238,9.704896927,0.670975029,0.682347476,10.52131939,1.863885999,0.682347476,10.52131939,1.863885999,4.660313606,9.154829025,3.206434727,Walking
25,1.926733851,8.976460457,2.459443808,1.926733851,8.976460457,2.459443808,0.875080705,6.245873451,2.992752075,0.875080705,6.245873451,2.992752075,0.137666598,10.88942814,6.278195381,0.137666598,10.88942814,6.278195381,6.835445881,6.743867874,5.127182961,6.835445881,6.743867874,5.127182961,-3.254318714,8.690353394,0.852934361,0.590769291,10.08916569,0.362721562,0.590769291,10.08916569,0.362721562,1.498770237,9.820416451,1.331176162,1.498770237,9.820416451,1.331176162,0.904409707,14.86918926,0.411204129,0.904409707,14.86918926,0.411204129,3.069366693,13.33450603,2.505532026,3.069366693,13.33450603,2.505532026,4.42508316,7.165845871,2.602497339,1.259948611,6.033987045,4.619612217,1.259948611,6.033987045,4.619612217,-1.476025343,8.201936722,5.019443989,-1.476025343,8.201936722,5.019443989,1.057040095,2.614468336,-0.158615857,1.057040095,2.614468336,-0.158615857,1.072602391,9.046490669,-0.919972003,0.442328751,10.7338047,0.944512546,0.442328751,10.7338047,0.944512546,0.400430232,10.2082777,0.81702131,0.400430232,10.2082777,0.81702131,-0.063446343,13.44643497,0.541089594,-0.063446343,13.44643497,0.541089594,5.184643745,11.479599,1.404199243,5.184643745,11.479599,1.404199243,4.305373192,6.551134586,4.541800499,0.621295333,5.623979568,4.204218388,0.621295333,5.623979568,4.204218388,2.457648039,8.437167168,6.787561893,2.457648039,8.437167168,6.787561893,2.266111851,7.484873295,-3.846883535,2.266111851,7.484873295,-3.846883535,3.174711466,9.180566788,1.181538582,3.174711466,9.180566788,1.181538582,0.474650472,9.28291893,1.489193439,2.322375536,10.52072048,0.22146365,2.322375536,10.52072048,0.22146365,1.335366011,8.07923317,1.087566137,1.335366011,8.07923317,1.087566137,-0.500388145,9.075819969,1.765723705,-0.500388145,9.075819969,1.765723705,1.631049871,5.813720226,4.296394825,Walking
26,1.631049871,5.813720226,4.296394825,-2.132635117,10.40639782,6.83724165,4.34487772,13.09748077,4.701613426,4.34487772,13.09748077,4.701613426,0.304063618,13.49970627,5.928043365,0.304063618,13.49970627,5.928043365,3.427299738,8.508993149,1.89620769,3.427299738,8.508993149,1.89620769,1.131858826,9.454104424,1.632246971,1.131858826,9.454104424,1.632246971,-0.690128624,9.84376049,0.59256494,4.212597847,8.691550255,1.41018486,4.212597847,8.691550255,1.41018486,0.635061979,9.082404137,2.555211782,0.635061979,9.082404137,2.555211782,1.167173386,7.048529625,3.176506996,1.167173386,7.048529625,3.176506996,-0.374692559,9.473855972,7.457339764,-0.374692559,9.473855972,7.457339764,5.037400246,8.598775864,7.815871239,-1.580771685,9.764751434,-1.221042871,-1.580771685,9.764751434,-1.221042871,4.319738388,8.24203968,2.37863946,4.319738388,8.24203968,2.37863946,2.441487074,9.342175484,1.241992116,2.441487074,9.342175484,1.241992116,0.985812545,10.06223106,1.297657371,0.985812545,10.06223106,1.297657371,5.01764822,9.143456459,2.627037764,3.606864929,6.765415668,2.189497471,3.606864929,6.765415668,2.189497471,3.277662039,8.258798599,3.951629877,3.277662039,8.258798599,3.951629877,0.732625723,8.676587105,5.293580055,0.732625723,8.676587105,5.293580055,2.979583979,7.951742172,1.673547029,0.209492654,10.25376701,-0.075417355,0.209492654,10.25376701,-0.075417355,2.205059767,9.441534042,2.038064241,2.205059767,9.441534042,2.038064241,0.539293945,9.373299599,1.283890605,0.539293945,9.373299599,1.283890605,1.221042871,14.96316242,1.438316703,1.221042871,14.96316242,1.438316703,4.979939461,10.95466995,1.663970232,3.287837505,6.274604321,0.880467653,3.287837505,6.274604321,0.880467653,1.477820992,6.086659431,5.601833344,1.477820992,6.086659431,5.601833344,3.333925962,7.39209795,0.944512546,Walking
27,3.333925962,7.39209795,0.944512546,-2.206256866,11.5586071,-0.269946247,-2.206256866,11.5586071,-0.269946247,0.59615624,9.588179588,2.567182779,1.420360208,9.311050415,0.586579442,1.420360208,9.311050415,0.586579442,0.980425596,10.20588303,2.716221809,0.980425596,10.20588303,2.716221809,5.639542103,8.127118111,1.355716705,5.639542103,8.127118111,1.355716705,2.616263866,11.64000988,3.764882088,2.616263866,11.64000988,3.764882088,1.206677675,5.594052315,3.479373693,-1.046864748,12.53903294,9.516951561,-1.046864748,12.53903294,9.516951561,2.512714624,3.192667961,0.348356336,2.512714624,3.192667961,0.348356336,-4.094683647,7.119158745,1.593341231,-4.094683647,7.119158745,1.593341231,0.545877993,9.421183586,1.017535686,0.545877993,9.421183586,1.017535686,1.351526856,9.172784805,1.207874775,-2.118868589,12.11885071,2.272696018,-2.118868589,12.11885071,2.272696018,8.322843552,12.90055752,3.119046211,8.322843552,12.90055752,3.119046211,3.493140221,6.460753441,0.976235747,3.493140221,6.460753441,0.976235747,0.189141929,5.629965305,5.05296278,0.189141929,5.629965305,5.05296278,2.178723574,7.094019413,5.960365295,0.214281052,7.431003571,-0.546476543,0.214281052,7.431003571,-0.546476543,2.172139406,8.84597683,1.315015316,2.172139406,8.84597683,1.315015316,-0.106541976,9.315239906,1.136048675,-0.106541976,9.315239906,1.136048675,1.250371814,10.43512821,-0.316034615,1.250371814,10.43512821,-0.316034615,2.323572636,10.64821243,0.480037451,0.107140526,8.216301918,0.153827459,0.107140526,8.216301918,0.153827459,2.465429306,6.263830185,4.46039772,2.465429306,6.263830185,4.46039772,-1.601720929,11.05702209,7.570465565,-1.601720929,11.05702209,7.570465565,11.8578825,14.5932579,2.440289974,11.8578825,14.5932579,2.440289974,-1.125274777,13.97136402,3.49373889,1.477222443,9.669582367,1.495178938,Walking
28,1.477222443,9.669582367,1.495178938,1.650203466,9.25658226,1.171363235,1.650203466,9.25658226,1.171363235,-0.493205547,15.24148846,0.423175156,-0.493205547,15.24148846,0.423175156,4.656722069,10.30524254,2.312200308,4.656722069,10.30524254,2.312200308,3.042431831,8.07624054,2.834734917,1.413776159,5.304353714,4.184465885,1.413776159,5.304353714,4.184465885,0.487220049,8.947132111,4.797980309,0.487220049,8.947132111,4.797980309,2.924517393,3.284246206,1.467047095,2.924517393,3.284246206,1.467047095,1.93152225,9.643844604,0.879270554,1.93152225,9.643844604,0.879270554,1.452681899,9.746196747,1.699883223,1.254561663,9.945513725,1.875258446,1.254561663,9.945513725,1.875258446,2.328959703,9.512163162,1.910573006,2.328959703,9.512163162,1.910573006,6.087856293,7.659649849,3.974374771,6.087856293,7.659649849,3.974374771,-0.919972003,10.19151783,2.734178305,1.878849745,8.838195801,5.045780182,1.878849745,8.838195801,5.045780182,3.378218651,10.4638586,6.667253017,3.378218651,10.4638586,6.667253017,2.612074137,8.776544571,2.254140854,2.612074137,8.776544571,2.254140854,2.050633669,8.84597683,1.355716705,2.050633669,8.84597683,1.355716705,1.193509579,9.836577415,2.050035238,0.546476543,10.73021317,0.828393817,0.546476543,10.73021317,0.828393817,0.213083953,13.5368166,0.884058952,0.213083953,13.5368166,0.884058952,4.608239651,10.54765606,0.756567717,4.608239651,10.54765606,0.756567717,4.90272665,6.126761913,2.762908697,4.90272665,6.126761913,2.762908697,-0.291494071,6.954557419,4.990114689,2.721608877,11.07497883,4.94642067,2.721608877,11.07497883,4.94642067,1.794454217,14.61480618,1.605312228,1.794454217,14.61480618,1.605312228,1.160589218,9.248801231,1.899798989,1.160589218,9.248801231,1.899798989,1.238400817,8.968081474,0.908599555,1.238400817,8.968081474,0.908599555,Walking
29,-0.175375268,9.347561836,2.360084295,6.724115372,13.56853962,3.582324266,6.724115372,13.56853962,3.582324266,2.834734917,7.249044418,-0.381875157,2.834734917,7.249044418,-0.381875157,1.657386184,5.446808815,3.437475204,1.657386184,5.446808815,3.437475204,0.887051702,7.741052628,4.511274338,0.887051702,7.741052628,4.511274338,5.154117584,6.714538574,5.223549366,-3.581725836,8.161234856,-0.127491236,-3.581725836,8.161234856,-0.127491236,-0.627280831,9.414599419,1.123479128,-0.627280831,9.414599419,1.123479128,1.592144132,9.830592155,0.29568392,1.592144132,9.830592155,0.29568392,-0.758363366,13.13518906,1.052850246,-0.758363366,13.13518906,1.052850246,5.491700172,9.354744911,1.032499433,4.75249052,4.865616322,4.727351189,4.75249052,4.865616322,4.727351189,-1.863287449,8.977658272,6.042964935,-1.863287449,8.977658272,6.042964935,4.107253075,6.207566261,1.893214941,4.107253075,6.207566261,1.893214941,1.477222443,10.76133823,-0.436343253,1.477222443,10.76133823,-0.436343253,2.330156803,9.413402557,2.664147854,1.886630893,9.28890419,0.986411095,1.886630893,9.28890419,0.986411095,1.229422569,9.904812813,1.546055794,1.229422569,9.904812813,1.546055794,7.1712327,11.71123791,3.785831451,7.1712327,11.71123791,3.785831451,3.068768024,7.963713169,1.474229693,3.068768024,7.963713169,1.474229693,-0.05925649,5.411494255,3.263296843,2.015319347,7.080851555,5.72274065,2.015319347,7.080851555,5.72274065,2.172139406,2.065597534,1.952471495,2.172139406,2.065597534,1.952471495,2.883217335,8.200738907,1.255758762,2.883217335,8.200738907,1.255758762,2.242169857,9.534309387,1.753154159,2.242169857,9.534309387,1.753154159,1.312022567,9.896432877,1.407191992,-0.210689753,12.18528938,0.552462041,-0.210689753,12.18528938,0.552462041,3.417124271,8.72806263,0.723647475,3.417124271,8.72806263,0.723647475,Walking
30,5.210979939,7.354987621,3.572747469,5.210979939,7.354987621,3.572747469,0.216076702,8.896254539,7.000645638,0.216076702,8.896254539,7.000645638,0.661398232,5.395333767,4.029441357,4.639364243,8.458714485,-2.888604403,4.639364243,8.458714485,-2.888604403,3.708019972,8.440159798,2.160767078,3.708019972,8.440159798,2.160767078,1.277306557,10.02512074,1.919551253,1.277306557,10.02512074,1.919551253,0.402824432,10.4393177,1.483207941,0.402824432,10.4393177,1.483207941,4.176086426,10.31960773,2.04285264,3.631405354,7.691372871,0.866102457,3.631405354,7.691372871,0.866102457,3.213617325,7.483077526,3.095104218,3.213617325,7.483077526,3.095104218,0.787692368,8.24203968,4.619013786,0.787692368,8.24203968,4.619013786,4.224568844,6.995258808,4.565742493,1.248576164,9.416395187,1.541267395,1.248576164,9.416395187,1.541267395,1.567603588,9.743802071,1.482010841,1.567603588,9.743802071,1.482010841,0.299873769,8.966883659,0.637456179,0.299873769,8.966883659,0.637456179,2.671929121,9.339780807,0.963067651,2.671929121,9.339780807,0.963067651,2.803011656,9.824606895,0.169988319,0.217273802,8.777742386,0.943913996,0.217273802,8.777742386,0.943913996,1.780687571,6.697779179,3.247734547,1.780687571,6.697779179,3.247734547,-1.066018343,11.2593317,7.547122478,-1.066018343,11.2593317,7.547122478,7.824251175,11.92551899,3.594295263,7.824251175,11.92551899,3.594295263,-2.22840333,13.15733528,2.923918724,0.799663365,9.496002197,1.139041424,0.799663365,9.496002197,1.139041424,1.247977614,9.000402451,1.068412542,1.247977614,9.000402451,1.068412542,-1.201889277,12.09311295,1.580173135,-1.201889277,12.09311295,1.580173135,5.98490572,10.71525002,2.856881142,5.98490572,10.71525002,2.856881142,2.412158251,7.608773232,1.080982089,1.432929754,5.187636375,3.761290789,1.432929754,5.187636375,3.761290789,Walking
31,0.732027173,7.063493729,4.223970413,0.732027173,7.063493729,4.223970413,3.509301186,9.391854286,-2.282871246,3.509301186,9.391854286,-2.282871246,1.413177609,9.488221169,2.086546898,1.413177609,9.488221169,2.086546898,2.576759577,8.756194115,2.457648039,1.29825592,10.39622211,-0.172382519,1.29825592,10.39622211,-0.172382519,2.49116683,9.953893661,1.194108129,2.49116683,9.953893661,1.194108129,1.567603588,9.282320023,1.71065712,1.567603588,9.282320023,1.71065712,1.446097851,7.123348713,4.362235546,1.446097851,7.123348713,4.362235546,-3.075352192,8.767566681,7.184400558,9.510966301,11.49815369,1.614290476,9.510966301,11.49815369,1.614290476,-0.836773515,9.565434456,4.481347084,-0.836773515,9.565434456,4.481347084,0.123301387,9.692925453,1.098340034,0.123301387,9.692925453,1.098340034,1.121683478,10.03709221,1.218648672,1.121683478,10.03709221,1.218648672,-1.108515382,14.99189281,-0.284311444,7.208342552,12.70064163,2.006340981,7.208342552,12.70064163,2.006340981,4.932653904,5.808333397,2.622848034,4.932653904,5.808333397,2.622848034,-0.216076702,6.087856293,5.816114426,-0.216076702,6.087856293,5.816114426,3.692457676,9.07103157,4.676474571,3.692457676,9.07103157,4.676474571,5.0942626,13.71039581,-5.887940407,1.923741102,8.921992302,2.492962599,1.923741102,8.921992302,2.492962599,1.389834046,9.151237488,1.647210717,1.389834046,9.151237488,1.647210717,0.609324336,9.63666153,0.433350503,0.609324336,9.63666153,0.433350503,4.423886299,7.273584843,0.427365005,4.423886299,7.273584843,0.427365005,1.021126986,9.375095367,2.761113167,1.889623642,6.673238754,3.643975019,1.889623642,6.673238754,3.643975019,0.069431849,7.156867504,6.041768074,0.069431849,7.156867504,6.041768074,2.358288765,2.45405674,2.71502471,2.358288765,2.45405674,2.71502471,2.316390038,9.623494148,0.152031809,Walking
32,1.843535304,10.23820496,0.709282279,1.843535304,10.23820496,0.709282279,1.310226917,10.23401546,1.244984865,1.310226917,10.23401546,1.244984865,3.975571871,10.45188713,2.243965626,3.975571871,10.45188713,2.243965626,2.729988575,8.537124634,0.40880993,2.729988575,8.537124634,0.40880993,3.114257813,7.246051311,4.112639904,1.630451322,7.299322605,5.196614742,1.630451322,7.299322605,5.196614742,7.836820602,17.19994545,7.916428089,7.836820602,17.19994545,7.916428089,0.659602582,12.46122169,1.107318282,0.659602582,12.46122169,1.107318282,1.716044068,9.39484787,1.093551636,1.716044068,9.39484787,1.093551636,1.053448796,9.447520256,1.414973259,1.158195019,9.910199165,0.491409898,1.158195019,9.910199165,0.491409898,0.696712673,10.37766743,0.900818408,0.696712673,10.37766743,0.900818408,0.361524463,8.859145164,0.389656335,0.361524463,8.859145164,0.389656335,2.214636564,5.787384033,3.878008127,2.214636564,5.787384033,3.878008127,-1.802833915,12.34031391,8.220491409,9.493608475,12.79521275,0.064643443,9.493608475,12.79521275,0.064643443,-4.318541527,9.882665634,6.47451973,-4.318541527,9.882665634,6.47451973,0.104746327,9.95568943,1.119289279,0.104746327,9.95568943,1.119289279,0.156820208,9.80246067,0.068234749,0.156820208,9.80246067,0.068234749,-0.022744916,13.57392693,1.938704848,9.762357712,12.96101093,3.059789658,9.762357712,12.96101093,3.059789658,5.392939091,6.171653271,1.777694821,5.392939091,6.171653271,1.777694821,0.656011283,6.990470409,5.042188644,0.656011283,6.990470409,5.042188644,3.12263751,6.303334713,5.558139324,3.12263751,6.303334713,5.558139324,3.169324398,13.26806736,-4.563947201,1.578976035,10.01973438,2.439691544,1.578976035,10.01973438,2.439691544,2.042253971,9.345766068,1.59992528,2.042253971,9.345766068,1.59992528,0.076015905,10.4584713,0.894234359,Walking
33,0.076015905,10.4584713,0.894234359,3.626616955,8.402450562,1.585560083,3.626616955,8.402450562,1.585560083,0.619499683,9.697713852,0.078410104,1.504755735,5.17087698,4.155735493,1.504755735,5.17087698,4.155735493,1.304241419,10.3166151,5.816114426,1.304241419,10.3166151,5.816114426,-1.67294848,6.736684799,-0.896628559,-1.67294848,6.736684799,-0.896628559,-2.673126221,8.458115578,-0.611119986,-2.673126221,8.458115578,-0.611119986,1.59812963,9.331999779,1.321000814,0.703895271,9.120112419,0.359728813,0.703895271,9.120112419,0.359728813,-0.67037648,13.60983944,2.130240917,-0.67037648,13.60983944,2.130240917,5.84065485,14.15990734,4.206612587,5.84065485,14.15990734,4.206612587,2.702455282,7.231087685,1.233013868,2.702455282,7.231087685,1.233013868,0.843357563,5.971138954,3.357269287,2.224812031,6.590638638,5.35642767,2.224812031,6.590638638,5.35642767,2.671929121,7.030573368,-4.641160011,2.671929121,7.030573368,-4.641160011,3.739144564,9.261969566,1.772906303,3.739144564,9.261969566,1.772906303,1.231816769,9.761159897,1.399410844,1.231816769,9.761159897,1.399410844,1.521515131,9.575610161,0.532709897,0.455496877,11.5681839,0.254982471,0.455496877,11.5681839,0.254982471,1.256357312,8.625710487,0.015562311,1.256357312,8.625710487,0.015562311,3.97497344,7.038952827,5.934627533,3.97497344,7.038952827,5.934627533,-1.947084546,9.06504631,5.505466938,-1.947084546,9.06504631,5.505466938,1.482609391,5.710171223,4.705204964,4.800374508,7.011419773,-3.505111217,4.800374508,7.011419773,-3.505111217,3.260304213,8.747216225,1.669357181,3.260304213,8.747216225,1.669357181,1.292270422,10.36270332,1.841141105,1.292270422,10.36270332,1.841141105,1.55862534,9.820416451,1.468244195,1.55862534,9.820416451,1.468244195,5.485714436,8.714295387,3.177704096,3.550002575,7.715314865,2.19428587,Walking
34,3.550002575,7.715314865,2.19428587,4.218583584,7.895478725,4.177882195,4.218583584,7.895478725,4.177882195,-0.089782566,7.402273178,5.279214859,-0.089782566,7.402273178,5.279214859,5.495291233,7.553706169,-0.565031588,-0.170586869,9.381679535,-0.002394202,-0.170586869,9.381679535,-0.002394202,-0.417788208,9.387065887,1.224634171,-0.417788208,9.387065887,1.224634171,2.485780001,8.792705536,1.364694953,2.485780001,8.792705536,1.364694953,3.080140591,9.620500565,1.787271619,3.080140591,9.620500565,1.787271619,2.37923789,9.40681839,2.101510525,0.922964752,6.338050365,4.002506733,0.922964752,6.338050365,4.002506733,-0.330998391,11.89918232,5.078700542,-0.330998391,11.89918232,5.078700542,4.72555542,7.688380241,6.287173748,4.72555542,7.688380241,6.287173748,-0.217872351,9.123703957,-1.045667648,-0.217872351,9.123703957,-1.045667648,0.872686505,9.473855972,1.241393566,1.383249998,9.616311073,1.172560334,1.383249998,9.616311073,1.172560334,-0.498592496,13.98812389,1.507748485,-0.498592496,13.98812389,1.507748485,5.251681328,12.36605167,2.240972757,5.251681328,12.36605167,2.240972757,4.862025261,7.195773125,2.089539528,4.862025261,7.195773125,2.089539528,0.840364814,6.35720396,4.38617754,1.304839969,5.963357925,4.341884613,1.304839969,5.963357925,4.341884613,4.826710701,11.08814621,-5.345654011,4.826710701,11.08814621,-5.345654011,3.119046211,9.196128845,1.843535304,3.119046211,9.196128845,1.843535304,1.593341231,9.538499832,1.927930951,1.593341231,9.538499832,1.927930951,0.263362199,10.52491093,0.067037649,2.732981205,9.108740807,0.876277804,2.732981205,9.108740807,0.876277804,-0.718260527,9.293692589,2.760514498,-0.718260527,9.293692589,2.760514498,1.021725535,6.643909931,3.876212597,1.021725535,6.643909931,3.876212597,-1.830965757,13.29021358,7.308300495,-1.830965757,13.29021358,7.308300495,Walking
35,8.377910614,12.20324612,6.975506783,-4.805162907,10.38903999,2.395997286,-4.805162907,10.38903999,2.395997286,-1.07679224,8.921394348,1.146224022,-1.07679224,8.921394348,1.146224022,1.999756932,9.110535622,0.909198105,1.999756932,9.110535622,0.909198105,-0.988206744,14.1904335,1.663970232,-0.988206744,14.1904335,1.663970232,6.694786549,13.16511631,3.704428673,5.190629482,6.54275465,2.356492996,5.190629482,6.54275465,2.356492996,0.697909772,6.406285286,4.493318081,0.697909772,6.406285286,4.493318081,2.777872562,6.964134216,6.684012413,2.777872562,6.964134216,6.684012413,3.796605349,12.55878544,-5.713163853,3.796605349,12.55878544,-5.713163853,3.591302633,9.540295601,2.41694665,2.317587137,9.073426247,1.884236693,2.317587137,9.073426247,1.884236693,-0.772728622,10.95945835,1.182137132,-0.772728622,10.95945835,1.182137132,5.048772812,7.685387611,1.134253025,5.048772812,7.685387611,1.134253025,2.036867142,8.970475197,2.568379879,2.036867142,8.970475197,2.568379879,1.726219416,6.229712963,2.785055161,0.542885244,8.401852608,5.620986938,0.542885244,8.401852608,5.620986938,0.18734628,9.352949142,2.718017578,0.18734628,9.352949142,2.718017578,-0.288501292,10.34414864,-0.85592711,-0.288501292,10.34414864,-0.85592711,2.495356798,9.628880501,2.072181463,2.495356798,9.628880501,2.072181463,2.619256735,8.774748802,1.312022567,1.929726601,9.654618263,1.197100878,1.929726601,9.654618263,1.197100878,4.968566895,8.285135269,2.033874273,4.968566895,8.285135269,2.033874273,2.558204412,9.647436142,3.396773577,2.558204412,9.647436142,3.396773577,2.552817583,8.596980095,3.882198095,2.552817583,8.596980095,3.882198095,1.022324085,8.529343605,5.31273365,2.630030632,12.29901409,6.743867874,2.630030632,12.29901409,6.743867874,3.08552742,11.06420422,1.567603588,3.08552742,11.06420422,1.567603588,Walking
36,-8.300098419,-6.975506783,19.60851097,-2.1972785,-2.084152699,2.554014683,-2.1972785,-2.084152699,2.554014683,-3.615843058,-4.514865875,8.41023159,-3.615843058,-4.514865875,8.41023159,-9.450512886,-12.83052731,19.60851097,-1.48799634,-5.255272865,-3.710414171,-1.48799634,-5.255272865,-3.710414171,2.64260006,1.899798989,-4.747103214,2.64260006,1.899798989,-4.747103214,0.909198105,-2.518101692,-4.611831188,0.909198105,-2.518101692,-4.611831188,-16.82285881,-14.62079144,19.60851097,-1.991377234,-1.310226917,2.238578558,-1.991377234,-1.310226917,2.238578558,-5.051765442,-2.465429306,2.90117383,-5.051765442,-2.465429306,2.90117383,-6.958747387,-8.563461304,19.60851097,-6.958747387,-8.563461304,19.60851097,-4.098873138,-9.09437561,8.563461304,-4.098873138,-9.09437561,8.563461304,2.837129116,1.458667397,-5.594052315,1.045667648,-0.685938776,-4.302380562,1.045667648,-0.685938776,-4.302380562,-7.803900242,-2.509721994,19.60851097,-7.803900242,-2.509721994,19.60851097,-3.134608507,-0.175375268,6.930615425,-3.134608507,-0.175375268,6.930615425,-0.431554854,-2.884414434,2.534861088,-0.431554854,-2.884414434,2.534861088,-3.390788078,-5.111620426,19.60851097,-8.603564262,-13.43566132,9.088988304,-8.603564262,-13.43566132,9.088988304,1.274912357,1.571194887,-5.622782707,1.274912357,1.571194887,-5.622782707,2.188300371,1.010951638,-3.305195332,2.188300371,1.010951638,-3.305195332,-5.997475147,-6.68461132,19.60851097,-5.997475147,-6.68461132,19.60851097,-2.586336374,-2.188300371,9.919775963,-1.456273198,-2.375048161,1.605910778,-1.456273198,-2.375048161,1.605910778,-7.742249966,-10.58895588,19.60851097,-7.742249966,-10.58895588,19.60851097,-9.572018623,-15.77958488,11.94467258,-9.572018623,-15.77958488,11.94467258,4.002506733,0.18435353,-7.764994621,4.002506733,0.18435353,-7.764994621,2.625840664,1.169567585,-5.234921932,-9.575011253,-12.57734013,11.6023016,Jumping
37,-9.575011253,-12.57734013,11.6023016,0.596754789,-1.307832718,18.08580017,0.596754789,-1.307832718,18.08580017,-0.710479379,-1.70826292,3.654150248,-0.710479379,-1.70826292,3.654150248,0.81941551,-6.223128796,19.60851097,0.81941551,-6.223128796,19.60851097,-9.586981773,-16.4583416,19.53608704,1.010951638,-2.161365509,-7.427412033,1.010951638,-2.161365509,-7.427412033,1.921945453,1.915361404,-4.711190224,1.921945453,1.915361404,-4.711190224,-8.341997147,-2.879027605,10.22922707,-8.341997147,-2.879027605,10.22922707,-2.703652382,-0.784101069,19.31163025,-2.703652382,-0.784101069,19.31163025,-0.735019922,-1.053448796,3.508104086,-2.094926596,-5.474940777,7.529764175,-2.094926596,-5.474940777,7.529764175,-10.87386513,-12.9675951,19.60851097,-10.87386513,-12.9675951,19.60851097,-3.998316765,-7.869740963,-6.238092422,-3.998316765,-7.869740963,-6.238092422,2.349909067,1.495178938,-7.166444302,2.349909067,1.495178938,-7.166444302,-0.038307227,-5.228337765,0.076015905,-11.1366291,0.326808542,19.60851097,-11.1366291,0.326808542,19.60851097,-1.294664621,-1.493383288,2.999934673,-1.294664621,-1.493383288,2.999934673,-1.775899053,-1.395819545,7.923610687,-1.775899053,-1.395819545,7.923610687,-7.329249859,-11.85608673,19.60851097,-7.329249859,-11.85608673,19.60851097,-2.700061083,-5.939415932,-2.547430515,2.185906172,0.975637197,-4.838083267,2.185906172,0.975637197,-4.838083267,-3.727173567,-2.441487074,-3.441664934,-3.727173567,-2.441487074,-3.441664934,-6.636128426,-6.645106792,19.60851097,-6.636128426,-6.645106792,19.60851097,-1.282693505,-2.164358377,2.743156672,-1.282693505,-2.164358377,2.743156672,-0.095768064,-3.01130724,9.812635422,-10.63324833,-9.756371498,17.6859684,-10.63324833,-9.756371498,17.6859684,-0.852335811,-7.003039837,-2.467224836,-0.852335811,-7.003039837,-2.467224836,2.032078743,1.939901948,-3.187281132,2.032078743,1.939901948,-3.187281132,Jumping
38,-3.00891304,-6.839036942,-0.265157849,-3.00891304,-6.839036942,-0.265157849,-3.807977915,-3.706224203,19.60851097,-1.557428241,-3.230975151,4.472967148,-1.557428241,-3.230975151,4.472967148,1.438316703,-3.801992416,3.718793869,1.438316703,-3.801992416,3.718793869,3.839700937,-13.6254015,19.60851097,3.839700937,-13.6254015,19.60851097,-6.077681065,-11.86626244,3.846883535,-6.077681065,-11.86626244,3.846883535,2.056020737,0.670975029,-2.869450808,-1.980004787,-1.514931083,-2.555810213,-1.980004787,-1.514931083,-2.555810213,0.08379706,-9.257779121,19.60851097,0.08379706,-9.257779121,19.60851097,-1.719036818,-2.402581453,7.620145321,-1.719036818,-2.402581453,7.620145321,-0.979827046,-2.515707493,2.027290344,-0.979827046,-2.515707493,2.027290344,-1.660378933,-12.34629917,19.60851097,-6.863577843,-13.21599293,11.02589703,-6.863577843,-13.21599293,11.02589703,1.974019289,-0.16879122,-3.834912539,1.974019289,-0.16879122,-3.834912539,-1.18991828,-1.551442742,-4.043806553,-1.18991828,-1.551442742,-4.043806553,-9.539097786,-14.0773077,19.60851097,-3.767276287,-0.954089403,6.044162273,-3.767276287,-0.954089403,6.044162273,-1.852513552,-2.331952572,2.295440912,-1.852513552,-2.331952572,2.295440912,-4.283226967,-3.146579504,19.60851097,-4.283226967,-3.146579504,19.60851097,-5.561730385,-8.115745544,19.35233307,-5.561730385,-8.115745544,19.35233307,1.335964561,-1.132457376,-5.385158062,0.994790792,-0.714669228,-4.789600372,0.994790792,-0.714669228,-4.789600372,-11.35749435,-16.272192,19.60851097,-11.35749435,-16.272192,19.60851097,-3.602674961,-0.414795458,8.634688377,-3.602674961,-0.414795458,8.634688377,0.026934769,-2.379836559,2.509123325,0.026934769,-2.379836559,2.509123325,-5.917868137,-7.449558735,19.60851097,-4.64295578,-10.83555794,16.98386765,-4.64295578,-10.83555794,16.98386765,0.802656114,-2.608482838,-6.789956093,0.802656114,-2.608482838,-6.789956093,Jumping
39,0.475249052,0.77871412,-4.61362648,0.475249052,0.77871412,-4.61362648,-15.98608494,-16.28236771,19.60851097,-15.98608494,-16.28236771,19.60851097,-2.797026157,-2.627037764,12.40076733,-0.059855044,-1.387439847,1.404797792,-0.059855044,-1.387439847,1.404797792,-11.9614315,-10.36090755,11.66814232,-11.9614315,-10.36090755,11.66814232,-2.12066412,-13.18367195,19.60851097,-2.12066412,-13.18367195,19.60851097,1.293467522,-1.535880446,-2.866457939,1.293467522,-1.535880446,-2.866457939,2.052429438,0.723647475,-2.994547844,-2.223614931,-5.927444935,14.81591892,-2.223614931,-5.927444935,14.81591892,-3.645172119,-3.125630379,17.57942581,-3.645172119,-3.125630379,17.57942581,-0.144849196,-2.840720415,0.676361978,-0.144849196,-2.840720415,0.676361978,0.004788403,-3.371036053,5.448604584,0.004788403,-3.371036053,5.448604584,-2.53067112,-4.753088951,19.60851097,-3.538031578,-10.00955868,-3.439270735,-3.538031578,-10.00955868,-3.439270735,2.765901566,0.219668001,-5.500678539,2.765901566,0.219668001,-5.500678539,-1.891419291,-5.659893036,-2.862268209,-1.891419291,-5.659893036,-2.862268209,-5.466560841,-2.694674015,18.14385986,-5.466560841,-2.694674015,18.14385986,-0.85473001,-2.033275843,5.459378242,-3.388992548,-2.818573952,5.72872591,-3.388992548,-2.818573952,5.72872591,-5.445013046,-6.640916824,19.60851097,-5.445013046,-6.640916824,19.60851097,-3.01190567,-8.947132111,-6.066308498,-3.01190567,-8.947132111,-6.066308498,2.570774078,1.464054346,-5.57190609,2.570774078,1.464054346,-5.57190609,-4.127603531,-5.452195644,-2.324171305,2.126051188,-7.704541206,19.60851097,2.126051188,-7.704541206,19.60851097,-3.357867956,-2.341529369,2.771288395,-3.357867956,-2.341529369,2.771288395,-0.994192243,-2.858078241,0.770334423,-0.994192243,-2.858078241,0.770334423,-2.954444885,-8.325238228,19.60851097,-2.954444885,-8.325238228,19.60851097,-3.406949043,-8.456320763,5.829881191,Jumping
40,4.216189384,-0.415394008,-2.139219284,4.216189384,-0.415394008,-2.139219284,2.127248287,-0.835576415,-3.875613928,2.127248287,-0.835576415,-3.875613928,-10.45308495,-12.02727222,19.60851097,-10.45308495,-12.02727222,19.60851097,-2.031480074,0.495001197,8.434772491,-2.031480074,0.495001197,8.434772491,-0.805648863,-2.348711967,4.76146841,-4.934449673,-4.611831188,19.60851097,-4.934449673,-4.611831188,19.60851097,-7.25024128,-10.98340034,12.9430542,-7.25024128,-10.98340034,12.9430542,3.34469986,0.970848799,-2.130839586,3.34469986,0.970848799,-2.130839586,0.914585054,0.642843127,-6.09683466,0.914585054,0.642843127,-6.09683466,-6.478111267,-6.378153324,17.0281601,-4.784213543,-2.649782658,11.81359005,-4.784213543,-2.649782658,11.81359005,-0.77871412,-1.477222443,-0.134075299,-0.77871412,-1.477222443,-0.134075299,-3.238157749,-6.736684799,7.596801758,-3.238157749,-6.736684799,7.596801758,-1.767519355,-8.500014305,19.60851097,-1.767519355,-8.500014305,19.60851097,-1.714846969,-3.862445831,-2.606687069,1.795651317,0.280720145,-3.774458885,1.795651317,0.280720145,-3.774458885,-4.090493679,-6.214748859,2.502539396,-4.090493679,-6.214748859,2.502539396,-3.456628799,-2.583942175,19.60851097,-3.456628799,-2.583942175,19.60851097,-0.9307459,-2.37923789,3.686472178,-0.9307459,-2.37923789,3.686472178,-3.186682463,-3.04841733,4.805761337,-6.525995255,-12.27626896,19.60851097,-6.525995255,-12.27626896,19.60851097,-1.547252893,-4.05338335,3.447650433,-1.547252893,-4.05338335,3.447650433,2.30561614,1.474229693,-2.918531895,2.30561614,1.474229693,-2.918531895,-2.895188332,-2.656965256,0.052672438,-2.895188332,-2.656965256,0.052672438,-9.002797127,0.612915635,19.60851097,-2.220622063,-0.722450376,5.679046631,-2.220622063,-0.722450376,5.679046631,-1.151012421,-1.8590976,2.883816004,-1.151012421,-1.8590976,2.883816004,-6.467337132,-4.956595898,19.60851097,Jumping
41,-6.467337132,-4.956595898,19.60851097,-5.705981255,-11.49935055,11.06181049,-5.705981255,-11.49935055,11.06181049,1.658583283,-0.610521436,-4.056376457,-1.813607812,-0.739808321,-3.617040157,-1.813607812,-0.739808321,-3.617040157,-6.567893982,-8.024167061,19.60851097,-6.567893982,-8.024167061,19.60851097,-1.662773132,-0.59615624,9.102156639,-1.662773132,-0.59615624,9.102156639,-1.824381709,-1.78128612,2.558204412,-2.174533606,-5.464166641,16.38112831,-2.174533606,-5.464166641,16.38112831,-3.754108191,-6.707355976,17.07963562,-3.754108191,-6.707355976,17.07963562,-0.605733037,-7.50163269,1.700481772,-0.605733037,-7.50163269,1.700481772,3.547009706,1.428739905,-7.374739647,3.547009706,1.428739905,-7.374739647,-4.993107796,-4.762067318,-2.561795712,-2.660556555,-2.895188332,19.60851097,-2.660556555,-2.895188332,19.60851097,-2.902969599,-1.483806491,5.61081171,-2.902969599,-1.483806491,5.61081171,-0.774524271,-1.494580388,1.483207941,-0.774524271,-1.494580388,1.483207941,-3.245939016,-5.6515131,19.60851097,-3.245939016,-5.6515131,19.60851097,-6.309918404,-12.58033276,5.685031891,0.474650472,-0.629076481,-7.603385925,0.474650472,-0.629076481,-7.603385925,-2.598307371,-2.278082848,-6.288370609,-2.598307371,-2.278082848,-6.288370609,-12.91671848,-18.91179848,19.60851097,-12.91671848,-18.91179848,19.60851097,-4.191648483,-1.780089021,5.600636482,-4.191648483,-1.780089021,5.600636482,-1.917755604,-1.632246971,-1.756146908,-6.877344608,-10.3459444,12.31936455,-6.877344608,-10.3459444,12.31936455,0.220266551,-10.39382839,19.60851097,0.220266551,-10.39382839,19.60851097,-1.499368787,-4.917091846,-1.032499433,-1.499368787,-4.917091846,-1.032499433,3.565564871,2.890998602,-5.965153694,3.565564871,2.890998602,-5.965153694,-4.015674591,-2.995744944,-1.519120932,-1.454477549,-19.29187965,19.60851097,-1.454477549,-19.29187965,19.60851097,-1.925536752,-7.210138321,9.331999779,Jumping
42,-1.925536752,-7.210138321,9.331999779,-0.069431849,-3.339911461,1.080383539,-0.069431849,-3.339911461,1.080383539,-6.610390663,-11.77947235,15.50425148,-6.610390663,-11.77947235,15.50425148,-3.989937067,-14.3035593,19.60851097,-0.18734628,-3.520673513,-4.056376457,-0.18734628,-3.520673513,-4.056376457,2.263717651,0.766743124,-3.785831451,2.263717651,0.766743124,-3.785831451,-4.68724823,-7.87931776,3.682880878,-4.68724823,-7.87931776,3.682880878,2.319981337,-5.914875507,19.60851097,2.319981337,-5.914875507,19.60851097,-0.882263303,-2.006340981,1.959654093,0.89303726,-2.708440781,3.926490784,0.89303726,-2.708440781,3.926490784,0.572214186,-7.140706539,19.60851097,0.572214186,-7.140706539,19.60851097,-6.585251808,-10.98758984,2.7509377,-6.585251808,-10.98758984,2.7509377,1.215057373,-0.119111538,-4.818929672,1.215057373,-0.119111538,-4.818929672,1.100135684,-0.687135875,-2.301426411,-6.27699852,-6.630741596,19.60851097,-6.27699852,-6.630741596,19.60851097,-0.809240162,0.038307227,14.55794334,-0.809240162,0.038307227,14.55794334,0.047884032,-3.326144695,4.729745388,0.047884032,-3.326144695,4.729745388,-8.682572365,-3.432088137,19.60851097,-8.682572365,-3.432088137,19.60851097,-3.8654387,-9.539696693,19.60851097,1.587954283,-2.164956808,-4.57472086,1.587954283,-2.164956808,-4.57472086,2.652176857,0.841561913,-4.809352875,2.652176857,0.841561913,-4.809352875,-3.657741547,-2.686892748,5.528211594,-3.657741547,-2.686892748,5.528211594,-2.384026289,-2.38163209,19.60851097,-1.168969035,-1.605910778,3.137601376,-1.168969035,-1.605910778,3.137601376,-1.729212165,-2.618059635,0.554856241,-1.729212165,-2.618059635,0.554856241,-9.324816704,-6.593631268,19.60851097,-9.324816704,-6.593631268,19.60851097,-4.836885929,-9.195529938,8.195950508,-4.836885929,-9.195529938,8.195950508,3.511695385,-0.857722759,-1.56221664,1.460463047,-0.268749148,-2.365471363,Jumping
43,1.460463047,-0.268749148,-2.365471363,-7.028179169,-15.81370258,19.60851097,-7.028179169,-15.81370258,19.60851097,-2.896385431,-4.87579155,18.10555267,-2.896385431,-4.87579155,18.10555267,0.081402861,-3.354276657,1.874061346,0.081402861,-3.354276657,1.874061346,-3.340509892,-5.187636375,5.035006046,-8.044517517,-13.12022495,19.31522179,-8.044517517,-13.12022495,19.31522179,-5.296572685,-9.910798073,5.80234766,-5.296572685,-9.910798073,5.80234766,1.66995573,0.020949265,-4.259284973,1.66995573,0.020949265,-4.259284973,1.083376288,-3.7169981,-2.461239338,1.083376288,-3.7169981,-2.461239338,-8.781931877,-6.50384903,19.60851097,-4.244919777,-1.97162509,11.00434971,-4.244919777,-1.97162509,11.00434971,-0.70688808,-2.889801502,0.20290859,-0.70688808,-2.889801502,0.20290859,-2.78924489,-3.19625926,1.702277422,-2.78924489,-3.19625926,1.702277422,-4.219182014,-8.558073997,19.60851097,-3.657741547,-8.234258652,0.85592711,-3.657741547,-8.234258652,0.85592711,2.86107111,0.933738649,-3.190273762,2.86107111,0.933738649,-3.190273762,-1.252167463,-4.689043999,-1.704671621,-1.252167463,-4.689043999,-1.704671621,-7.078457355,-2.079364061,19.60851097,-7.078457355,-2.079364061,19.60851097,-0.688332975,-1.628057122,10.40280628,-0.542885244,-1.638831019,0.521935999,-0.542885244,-1.638831019,0.521935999,-2.693476915,-6.665457726,19.40799713,-2.693476915,-6.665457726,19.40799713,3.581127167,-6.534973621,19.60851097,3.581127167,-6.534973621,19.60851097,-1.039083481,-4.948216438,-4.542997837,-1.039083481,-4.948216438,-4.542997837,1.48620069,1.173158884,-5.308543682,-4.686649799,-6.968922615,4.438849926,-4.686649799,-6.968922615,4.438849926,4.027645588,-1.8590976,19.60851097,4.027645588,-1.8590976,19.60851097,-0.275931746,-2.169745207,5.099649429,-0.275931746,-2.169745207,5.099649429,-0.741603971,-1.18872118,1.812410712,-0.741603971,-1.18872118,1.812410712,Jumping
44,2.653373957,-8.186972618,19.60851097,-6.540360451,-7.605780125,10.01135445,-6.540360451,-7.605780125,10.01135445,3.114257813,0.266953498,-5.656899929,3.114257813,0.266953498,-5.656899929,0.071227498,-1.833958507,-4.458003521,0.071227498,-1.833958507,-4.458003521,-2.582146645,-8.763975143,16.42362595,-2.582146645,-8.763975143,16.42362595,-0.89004451,-1.067813993,19.1296711,-0.438737452,-2.212242365,0.663193882,-0.438737452,-2.212242365,0.663193882,-0.117315881,-3.746327162,0.498592496,-0.117315881,-3.746327162,0.498592496,-1.885433793,-0.698508322,19.60851097,-1.885433793,-0.698508322,19.60851097,-4.845864296,-8.981248856,12.94963837,-4.845864296,-8.981248856,12.94963837,1.386841297,-0.791283667,-4.808155537,0.640448928,-0.702099621,-6.366182327,0.640448928,-0.702099621,-6.366182327,-3.447052002,-6.921637058,12.58691692,-3.447052002,-6.921637058,12.58691692,-0.769137323,-2.859275341,19.60851097,-0.769137323,-2.859275341,19.60851097,-1.103726983,-2.913144827,-0.284311444,-1.103726983,-2.913144827,-0.284311444,0.231040463,-0.994192243,3.369838953,-6.502053261,-9.946112633,19.60851097,-6.502053261,-9.946112633,19.60851097,-4.183269024,-10.50216579,-1.977610588,-4.183269024,-10.50216579,-1.977610588,2.415150881,1.159392118,-4.588487625,2.415150881,1.159392118,-4.588487625,-0.896030009,-4.08510685,-1.953070045,-0.896030009,-4.08510685,-1.953070045,-11.21144772,-17.97925758,19.60851097,-5.565920353,-4.631583214,8.792705536,-5.565920353,-4.631583214,8.792705536,0.750582218,-3.34649539,0.266354948,0.750582218,-3.34649539,0.266354948,-4.550180435,-5.549160957,10.38903999,-4.550180435,-5.549160957,10.38903999,-5.207987309,-8.870517731,19.60851097,-5.207987309,-8.870517731,19.60851097,-1.775899053,-6.774393559,-4.235342979,1.295263171,1.435323954,-6.994660378,1.295263171,1.435323954,-6.994660378,-4.296394825,-7.085041523,-0.497993946,-4.296394825,-7.085041523,-0.497993946,Jumping
45,-14.45978069,-6.955155849,19.60851097,-14.45978069,-6.955155849,19.60851097,-2.552218914,-3.548805475,7.055113792,-2.552218914,-3.548805475,7.055113792,0.397437483,-2.799420357,-1.316212416,-4.969764233,-9.43614769,19.60851097,-4.969764233,-9.43614769,19.60851097,-5.808931828,-13.77025127,19.60851097,-5.808931828,-13.77025127,19.60851097,-1.074996591,-6.776189327,-3.927089453,-1.074996591,-6.776189327,-3.927089453,2.372055292,0.330399841,-5.248090267,2.372055292,0.330399841,-5.248090267,-2.339733601,-6.047154903,1.280897856,-9.866505623,-4.380191803,19.60851097,-9.866505623,-4.380191803,19.60851097,-3.821146011,-2.839523315,9.255385399,-3.821146011,-2.839523315,9.255385399,0.251391172,-2.114080191,-0.969651699,0.251391172,-2.114080191,-0.969651699,-8.03793335,-10.38903999,19.45109367,-8.03793335,-10.38903999,19.45109367,-11.38682365,-11.67771912,19.60851097,0.679953277,-4.027047157,-7.231686115,0.679953277,-4.027047157,-7.231686115,3.243544817,0.791283667,-3.000533342,3.243544817,0.791283667,-3.000533342,-7.384915352,-8.087015152,9.10933876,-7.384915352,-8.087015152,9.10933876,4.068945885,-9.968857765,19.60851097,4.068945885,-9.968857765,19.60851097,-1.473631144,-2.364274263,1.774103403,-0.374692559,-2.693476915,0.320823014,-0.374692559,-2.693476915,0.320823014,2.832939148,-11.22461605,19.60851097,2.832939148,-11.22461605,19.60851097,-1.533486247,-8.467693329,-2.746747971,-1.533486247,-8.467693329,-2.746747971,1.074398041,1.469441295,-6.022614479,-1.848922253,-5.377377033,1.588552833,-1.848922253,-5.377377033,1.588552833,16.14110947,-12.07874775,19.60851097,16.14110947,-12.07874775,19.60851097,-2.22840333,-4.478354454,6.868366241,-2.22840333,-4.478354454,6.868366241,-1.800439715,-3.241749048,-1.543063045,-1.800439715,-3.241749048,-1.543063045,0.160411507,-8.720281601,14.97692871,-0.304662168,-13.56135654,19.60851097,-0.304662168,-13.56135654,19.60851097,Jumping
46,-2.202665567,-7.990049839,-1.845929503,-2.202665567,-7.990049839,-1.845929503,2.762908697,-0.199915841,-6.376357555,2.762908697,-0.199915841,-6.376357555,-4.991312027,-6.637924194,-5.756259441,-4.991312027,-6.637924194,-5.756259441,-15.1624794,-7.668029308,19.60851097,-1.962646842,-5.064933777,9.311649323,-1.962646842,-5.064933777,9.311649323,-1.547851443,-2.674921751,-0.716464877,-1.547851443,-2.674921751,-0.716464877,-1.829170108,-8.264185905,19.60851097,-1.829170108,-8.264185905,19.60851097,-5.813720226,-16.09621811,19.60851097,-5.813720226,-16.09621811,19.60851097,2.292448044,-3.354276657,-6.293159008,-1.93391645,0.428562105,-8.0229702,-1.93391645,0.428562105,-8.0229702,-6.348824501,-14.98231602,15.74127769,-6.348824501,-14.98231602,15.74127769,-2.014122248,-3.561973572,19.60851097,-2.014122248,-3.561973572,19.60851097,1.313219666,-3.092710018,0.137068048,1.313219666,-3.092710018,0.137068048,-0.958877802,-4.115632534,1.304839969,-3.052008629,-4.396352768,19.60851097,-3.052008629,-4.396352768,19.60851097,-5.13556242,-7.515398979,7.137713909,-5.13556242,-7.515398979,7.137713909,3.068169594,-0.044891283,-4.152742863,3.068169594,-0.044891283,-4.152742863,-0.998980641,-2.04823947,-5.811326027,-0.998980641,-2.04823947,-5.811326027,-11.28746414,-14.80454636,19.60851097,-0.925358951,-4.79678297,17.8427887,-0.925358951,-4.79678297,17.8427887,0.700303972,-3.235165119,1.043273449,0.700303972,-3.235165119,1.043273449,2.120065689,-2.905363798,7.480683327,2.120065689,-2.905363798,7.480683327,-6.277596951,-6.399102688,19.60851097,-6.277596951,-6.399102688,19.60851097,0.040102877,-6.071695328,-4.76086998,1.891419291,1.809417963,-5.435436249,1.891419291,1.809417963,-5.435436249,-2.005143881,-8.674791336,4.807557106,-2.005143881,-8.674791336,4.807557106,-3.406949043,-8.325238228,19.60851097,-3.406949043,-8.325238228,19.60851097,-1.085171938,-3.874416828,3.296815634,Jumping
47,-1.085171938,-3.874416828,3.296815634,0.554856241,-1.660977483,1.240196466,-0.394444734,-9.960477829,19.60851097,-0.394444734,-9.960477829,19.60851097,-2.412158251,-9.44512558,19.60851097,-2.412158251,-9.44512558,19.60851097,1.869272947,-1.585560083,-5.932831764,1.869272947,-1.585560083,-5.932831764,1.413776159,0.639850378,-6.089652061,1.413776159,0.639850378,-6.089652061,-2.267907619,-6.10042572,9.85273838,-1.542464495,0.294486821,19.60851097,-1.542464495,0.294486821,19.60851097,-0.105943426,-2.014122248,2.144606113,-0.105943426,-2.014122248,2.144606113,0.517746091,-2.718616009,1.975814939,0.517746091,-2.718616009,1.975814939,3.766677856,-3.512293816,19.60851097,3.766677856,-3.512293816,19.60851097,-0.37050271,-10.94449425,8.635287285,1.63823247,0.544680893,-4.38378334,1.63823247,0.544680893,-4.38378334,0.797867715,-1.731007814,-5.701192856,0.797867715,-1.731007814,-5.701192856,-3.528454781,-16.69057846,19.60851097,-3.528454781,-16.69057846,19.60851097,-1.96982944,-2.843114614,10.56381607,-1.96982944,-2.843114614,10.56381607,0.48482585,-2.334346771,1.71005857,-0.825401008,-4.109048843,9.750386238,-0.825401008,-4.109048843,9.750386238,-0.615309834,-9.584588051,19.60851097,-0.615309834,-9.584588051,19.60851097,0.132279649,-1.876455545,-5.099050999,0.132279649,-1.876455545,-5.099050999,1.356913805,0.18495208,-4.845864296,1.356913805,0.18495208,-4.845864296,-2.644395828,-5.964554787,3.059789658,-1.489193439,1.831564307,19.60851097,-1.489193439,1.831564307,19.60851097,-0.243011475,-2.133832216,2.548627615,-0.243011475,-2.133832216,2.548627615,1.627458572,-2.934692621,3.444657803,1.627458572,-2.934692621,3.444657803,-4.296993732,-0.998980641,19.60851097,-1.754949808,-6.76661253,2.667140722,-1.754949808,-6.76661253,2.667140722,2.324171305,0.642843127,-7.120356083,2.324171305,0.642843127,-7.120356083,-1.97042799,-3.493140221,-3.649361849,Jumping
48,-1.97042799,-3.493140221,-3.649361849,-5.030217648,-14.86380291,19.60851097,-5.030217648,-14.86380291,19.60851097,-3.943250179,-1.802235365,9.35953331,-0.656609833,-1.939901948,0.799663365,-0.656609833,-1.939901948,0.799663365,-0.776319921,-6.126163483,14.15272522,-0.776319921,-6.126163483,14.15272522,-0.969053149,-3.866635799,19.60851097,-0.969053149,-3.866635799,19.60851097,1.130661726,-3.401561975,2.618658066,1.130661726,-3.401561975,2.618658066,1.721431017,1.460463047,-3.735553265,-2.342726469,-4.677671432,0.74519527,-2.342726469,-4.677671432,0.74519527,-2.972401381,-3.711611271,19.60851097,-2.972401381,-3.711611271,19.60851097,-3.586514235,-2.666542053,7.61356163,-3.586514235,-2.666542053,7.61356163,-0.797867715,-2.928707123,-0.328005642,-0.797867715,-2.928707123,-0.328005642,-1.097741485,-6.005855083,19.60851097,-5.23851347,-12.71500683,17.56685638,-5.23851347,-12.71500683,17.56685638,1.760935307,-0.277128845,-7.114370346,1.760935307,-0.277128845,-7.114370346,-0.316034615,-1.886032343,-3.226785421,-0.316034615,-1.886032343,-3.226785421,-3.474585295,-19.60851097,19.60851097,-3.474585295,-19.60851097,19.60851097,-2.11826992,-3.08433032,5.661688328,0.008379706,-1.093551636,3.299808502,0.008379706,-1.093551636,3.299808502,-1.975216389,-3.964199543,6.946177483,-1.975216389,-3.964199543,6.946177483,-5.579088688,-6.571485043,19.60851097,-5.579088688,-6.571485043,19.60851097,0.02932897,-7.785943985,6.543951988,0.02932897,-7.785943985,6.543951988,1.726817966,0.268749148,-3.192667961,-3.092111588,-4.150947094,0.319027364,-3.092111588,-4.150947094,0.319027364,0.137068048,-5.742492676,19.60851097,0.137068048,-5.742492676,19.60851097,-1.492186189,-1.520318031,6.955155849,-1.492186189,-1.520318031,6.955155849,-1.889623642,-0.129885435,0.566827238,-1.889623642,-0.129885435,0.566827238,-2.068590164,-5.333084106,19.60851097,-1.854907751,-7.213729858,19.60851097,Jumping
49,-1.854907751,-7.213729858,19.60851097,3.846883535,-1.293467522,-4.724956989,3.846883535,-1.293467522,-4.724956989,-0.228047714,-0.232237563,-4.181473255,-0.228047714,-0.232237563,-4.181473255,-4.972756863,-2.793434858,14.37837791,-4.972756863,-2.793434858,14.37837791,-5.42466259,2.214636564,16.12734222,-0.721851826,0.016759412,3.431489468,-0.721851826,0.016759412,3.431489468,0.627879381,0.384867936,6.688202381,0.627879381,0.384867936,6.688202381,-3.131615877,-1.769913554,19.60851097,-3.131615877,-1.769913554,19.60851097,-2.518101692,-3.463811398,-1.440710902,-2.518101692,-3.463811398,-1.440710902,4.067748547,2.22840333,-4.50169754,-1.641823769,-3.255515814,0.983418345,-1.641823769,-3.255515814,0.983418345,-6.372766495,-3.471592426,19.60851097,-6.372766495,-3.471592426,19.60851097,-3.781043053,-1.581968784,10.00776291,-3.781043053,-1.581968784,10.00776291,-0.266354948,-0.961870551,1.853112102,-0.266354948,-0.961870551,1.853112102,-2.659359455,-5.878363609,17.75599861,-5.290587425,-3.168725967,19.60851097,-5.290587425,-3.168725967,19.60851097,1.256357312,-2.835333347,-2.180519104,1.256357312,-2.835333347,-2.180519104,4.006696701,2.425924778,-4.909909248,4.006696701,2.425924778,-4.909909248,-5.20619154,-2.871845007,7.678803444,-5.20619154,-2.871845007,7.678803444,-0.143652096,-4.766256809,19.60851097,1.100734234,-1.52510643,5.737105846,1.100734234,-1.52510643,5.737105846,0.283114344,-1.00496614,1.531690478,0.283114344,-1.00496614,1.531690478,-3.041833162,-7.584830761,19.60851097,-3.041833162,-7.584830761,19.60851097,-2.068590164,-5.750273705,16.58343887,-2.068590164,-5.750273705,16.58343887,1.759738207,0.18495208,-5.433042049,-0.692522824,-0.214879602,-3.690661907,-0.692522824,-0.214879602,-3.690661907,-4.379593372,-12.38281155,19.60851097,-4.379593372,-12.38281155,19.60851097,-2.469020605,-3.663128614,13.54639339,-2.469020605,-3.663128614,13.54639339,Jumping
50,0.673967779,-1.399410844,3.816357613,0.673967779,-1.399410844,3.816357613,0.005386954,-1.00317049,1.294066072,0.258573771,-5.262455463,19.60851097,0.258573771,-5.262455463,19.60851097,-5.449203014,-8.756194115,5.179855347,-5.449203014,-8.756194115,5.179855347,3.652953148,1.223437071,-4.179079056,3.652953148,1.223437071,-4.179079056,-3.27167654,-1.11569798,-0.912789404,-3.27167654,-1.11569798,-0.912789404,-1.025915384,-11.64360142,19.60851097,-2.877830505,-6.118980885,13.12621117,-2.877830505,-6.118980885,13.12621117,-0.010175358,-1.914762855,0.861314058,-0.010175358,-1.914762855,0.861314058,-0.727837324,-2.052429438,-1.012747288,-0.727837324,-2.052429438,-1.012747288,-1.519120932,-4.751293182,19.60851097,-5.5312047,-7.702147007,1.11569798,-5.5312047,-7.702147007,1.11569798,3.549403906,0.814627111,-7.671022415,3.549403906,0.814627111,-7.671022415,-0.951695204,-3.072957993,-1.036090732,-0.951695204,-3.072957993,-1.036090732,-12.05300999,-5.506663799,19.60851097,-12.05300999,-5.506663799,19.60851097,-3.3081882,-1.55982244,11.55322075,-0.215478152,-1.592742682,2.388216257,-0.215478152,-1.592742682,2.388216257,-1.538873196,-2.428917646,0.330998391,-1.538873196,-2.428917646,0.330998391,-6.763021469,-3.788225651,19.60851097,-6.763021469,-3.788225651,19.60851097,-1.586158633,-8.273762703,3.933074951,-1.586158633,-8.273762703,3.933074951,2.735375404,0.988805294,-4.048594952,-1.11450088,-3.56736064,-1.414973259,-1.11450088,-3.56736064,-1.414973259,2.104503393,-9.008183479,19.60851097,2.104503393,-9.008183479,19.60851097,2.094327927,-4.058171749,11.58733749,2.094327927,-4.058171749,11.58733749,0.839766264,-0.888847411,-1.386242747,0.839766264,-0.888847411,-1.386242747,-4.474762917,-3.004124641,2.830544949,-5.871181011,-1.587954283,19.60851097,-5.871181011,-1.587954283,19.60851097,-1.159990668,-7.107786179,3.877409697,-1.159990668,-7.107786179,3.877409697,Jumping
51,2.791040659,0.072424598,-5.006874084,2.791040659,0.072424598,-5.006874084,-2.868852139,-2.349310398,-1.531690478,-2.868852139,-2.349310398,-1.531690478,0.684741676,-10.82418633,19.60851097,-1.259948611,-3.472789526,10.01554394,-1.259948611,-3.472789526,10.01554394,0.269946247,0.023343466,-0.987608194,0.269946247,0.023343466,-0.987608194,-2.304419041,0.265756398,-1.966238141,-2.304419041,0.265756398,-1.966238141,-7.43339777,-5.926846504,19.60851097,-7.43339777,-5.926846504,19.60851097,-0.924161851,-6.144718647,3.3093853,3.465008497,2.718616009,-4.750096321,3.465008497,2.718616009,-4.750096321,1.286284804,-4.404133797,1.354519606,1.286284804,-4.404133797,1.354519606,-5.877765179,-4.79917717,19.60851097,-5.877765179,-4.79917717,19.60851097,-2.687491417,-1.533486247,8.015787125,-2.687491417,-1.533486247,8.015787125,-1.082179189,-0.812232912,0.562038839,-3.42191267,-4.04979229,11.62145519,-3.42191267,-4.04979229,11.62145519,-12.29602146,-5.148730755,19.60851097,-12.29602146,-5.148730755,19.60851097,-1.085171938,-4.911705017,-2.924517393,-1.085171938,-4.911705017,-2.924517393,3.881599426,2.663549423,-8.668207169,3.881599426,2.663549423,-8.668207169,-3.278859138,-3.640982151,5.283404827,-1.253364563,-1.541267395,19.60851097,-1.253364563,-1.541267395,19.60851097,0.16879122,-0.497993946,4.240729809,0.16879122,-0.497993946,4.240729809,-0.921169102,-0.48482585,-0.16879122,-0.921169102,-0.48482585,-0.16879122,5.383362293,-14.22395229,19.60851097,5.383362293,-14.22395229,19.60851097,-1.468842745,-9.964069366,10.40160942,0.81761986,-0.10295067,-1.022324085,0.81761986,-0.10295067,-1.022324085,0.391451985,0.987608194,-7.229291916,0.391451985,0.987608194,-7.229291916,-5.376778603,-6.806715488,19.60851097,-5.376778603,-6.806715488,19.60851097,-2.202665567,-1.132457376,15.76881123,-2.202665567,-1.132457376,15.76881123,0.957082152,-1.607107878,3.884592295,Jumping
52,-0.569819987,-2.646191359,4.030039787,-0.569819987,-2.646191359,4.030039787,-4.729745388,-6.521206856,19.60851097,-4.729745388,-6.521206856,19.60851097,-3.032256365,-7.668029308,5.700594425,-3.032256365,-7.668029308,5.700594425,3.706224203,-0.18495208,-4.609436989,3.706224203,-0.18495208,-4.609436989,1.618480325,-2.776076794,-1.926135302,-9.658209801,-7.535749912,19.60851097,-9.658209801,-7.535749912,19.60851097,-4.086303711,-1.74716866,10.67574501,-4.086303711,-1.74716866,10.67574501,0.019153614,-1.650203466,0.527322948,0.019153614,-1.650203466,0.527322948,2.22840333,-5.771223068,19.30983543,2.22840333,-5.771223068,19.30983543,-5.401319027,-2.988562346,19.10453224,-1.508347034,-4.580107689,1.192312479,-1.508347034,-4.580107689,1.192312479,3.852270603,2.433706045,-6.024410248,3.852270603,2.433706045,-6.024410248,-2.043451071,-4.519055843,0.415992558,-2.043451071,-4.519055843,0.415992558,-4.991312027,-10.10712242,19.60851097,-4.991312027,-10.10712242,19.60851097,-1.140238523,-1.917755604,7.640496254,-1.474229693,-1.424550056,2.929904222,-1.474229693,-1.424550056,2.929904222,-2.354697466,-2.815581083,14.41189671,-2.354697466,-2.815581083,14.41189671,-1.866280198,-7.794323444,19.60851097,-1.866280198,-7.794323444,19.60851097,-1.739387512,-4.519654274,-0.402225882,-1.739387512,-4.519654274,-0.402225882,3.435679436,2.145803213,-4.209006786,-1.938704848,-2.555211782,0.554856241,-1.938704848,-2.555211782,0.554856241,-0.715267777,-6.357802391,19.60851097,-0.715267777,-6.357802391,19.60851097,-1.865681648,-2.001552582,9.015965462,-1.865681648,-2.001552582,9.015965462,-0.983418345,-0.984016895,0.584185243,-2.491765499,-2.840720415,11.74176407,-2.491765499,-2.840720415,11.74176407,-0.707486629,-5.223549366,19.60851097,-0.707486629,-5.223549366,19.60851097,2.109291792,-5.419275761,7.456142426,2.109291792,-5.419275761,7.456142426,1.985990286,1.96923089,-5.634155273,Jumping
53,1.985990286,1.96923089,-5.634155273,-3.721786499,-6.517615795,0.14903906,-4.566939831,-5.233725071,19.60851097,-4.566939831,-5.233725071,19.60851097,-2.385822058,-2.593518972,9.401431084,-2.385822058,-2.593518972,9.401431084,-0.126294136,-1.916558504,2.786850691,-0.126294136,-1.916558504,2.786850691,-3.165134668,-1.223437071,2.45285964,-3.165134668,-1.223437071,2.45285964,-6.680421352,-2.680907249,19.60851097,-0.14844051,-4.400542736,0.686537325,-0.14844051,-4.400542736,0.686537325,4.092887878,1.330577612,-8.271966934,4.092887878,1.330577612,-8.271966934,-6.005256176,-6.580463409,10.00357342,-6.005256176,-6.580463409,10.00357342,-1.342548609,1.531091928,16.19138718,-1.342548609,1.531091928,16.19138718,0.450109929,-1.321000814,8.508993149,-1.11569798,-0.510563493,0.496796846,-1.11569798,-0.510563493,0.496796846,-0.531512797,-11.14860058,19.60851097,-0.531512797,-11.14860058,19.60851097,-0.535104096,-9.935936928,19.60851097,-0.535104096,-9.935936928,19.60851097,0.567425787,-5.478531837,-2.553416014,0.567425787,-5.478531837,-2.553416014,2.066794634,3.375824451,-9.494206429,-6.141127586,-6.349422932,3.135805607,-6.141127586,-6.349422932,3.135805607,-2.269104719,-3.289034605,19.60851097,-2.269104719,-3.289034605,19.60851097,0.416591108,-1.921346903,7.966107368,0.416591108,-1.921346903,7.966107368,-0.366911411,-0.709880829,3.49433732,-0.366911411,-0.709880829,3.49433732,-4.461595058,-2.580350876,14.25806999,-1.277905107,-4.950610638,19.60851097,-1.277905107,-4.950610638,19.60851097,1.714846969,0.299275219,-4.632780075,1.714846969,0.299275219,-4.632780075,0.838569164,0.392649084,-1.247977614,0.838569164,0.392649084,-1.247977614,-2.660556555,-8.826823235,19.17995071,-2.660556555,-8.826823235,19.17995071,-2.260126352,-2.080561161,16.62114716,-0.659602582,-1.456871748,6.300341606,-0.659602582,-1.456871748,6.300341606,-0.433949053,-0.433949053,1.692102075,Jumping
54,-0.433949053,-0.433949053,1.692102075,-3.356670856,-3.669712543,19.60851097,-3.356670856,-3.669712543,19.60851097,0.851737261,-6.811503887,19.28409767,0.851737261,-6.811503887,19.28409767,4.08809948,0.758961916,-3.220799923,-0.123899937,0.617704034,-4.801571369,-0.123899937,0.617704034,-4.801571369,-6.449979305,-9.774927139,16.32246971,-6.449979305,-9.774927139,16.32246971,-3.423708439,-0.623689532,15.93760204,-3.423708439,-0.623689532,15.93760204,0.528520048,-0.851138711,0.267552048,0.528520048,-0.851138711,0.267552048,-1.126471877,-1.016937137,-0.527921498,0.919972003,-8.181585312,19.60851097,0.919972003,-8.181585312,19.60851097,-2.581547976,-6.35720396,8.576628685,-2.581547976,-6.35720396,8.576628685,3.303399801,1.401206493,-4.30657053,3.303399801,1.401206493,-4.30657053,-0.490811348,0.360327363,-0.258573771,-0.490811348,0.360327363,-0.258573771,-6.451775074,-9.220070839,19.60851097,-1.70946002,-1.204882026,16.66903114,-1.70946002,-1.204882026,16.66903114,-0.624288082,-1.482609391,-0.339976639,-0.624288082,-1.482609391,-0.339976639,-1.528099179,-2.482787132,0.20470424,-1.528099179,-2.482787132,0.20470424,7.713519096,-11.83992577,19.60851097,7.713519096,-11.83992577,19.60851097,-6.517016888,-14.56153488,10.44470501,3.23157382,-0.81702131,-8.552686691,3.23157382,-0.81702131,-8.552686691,2.298433542,-1.750161409,-4.05577755,2.298433542,-1.750161409,-4.05577755,-7.271190643,-6.801328659,19.60851097,-7.271190643,-6.801328659,19.60851097,-6.579266071,-1.787870169,10.55663395,-6.579266071,-1.787870169,10.55663395,-0.417788208,-1.762132406,1.792658567,0.919373453,-1.653196216,6.077082634,0.919373453,-1.653196216,6.077082634,-9.576208115,-7.620145321,19.60851097,-9.576208115,-7.620145321,19.60851097,-2.394201756,-10.7625351,7.58423233,-2.394201756,-10.7625351,7.58423233,3.573944569,0.453102678,-6.678625584,3.573944569,0.453102678,-6.678625584,Jumping
55,0.584185243,-1.774701953,-1.772307754,-5.195417881,-9.87608242,19.51513863,-5.195417881,-9.87608242,19.51513863,-2.798821688,-6.339846134,13.10167027,-2.798821688,-6.339846134,13.10167027,-0.951695204,-1.48679924,0.939125597,-0.951695204,-1.48679924,0.939125597,1.304241419,-1.614889026,5.239710331,1.304241419,-1.614889026,5.239710331,-1.458068848,-7.192182064,19.60851097,-0.007182605,-6.780977726,4.917091846,-0.007182605,-6.780977726,4.917091846,3.419518471,1.44729495,-3.779247284,3.419518471,1.44729495,-3.779247284,-0.997783542,-2.33793807,-1.307832718,-0.997783542,-2.33793807,-1.307832718,-5.595249176,-11.37006378,19.60851097,-5.595249176,-11.37006378,19.60851097,-2.26850605,-1.885433793,9.3391819,-0.359728813,-1.197100878,1.840542555,-0.359728813,-1.197100878,1.840542555,0.814627111,-1.480813742,6.994061947,0.814627111,-1.480813742,6.994061947,-0.981622696,-2.011728048,19.60851097,-0.981622696,-2.011728048,19.60851097,-1.799242616,-7.712920666,0.988805294,-1.799242616,-7.712920666,0.988805294,3.105279684,2.803610086,-7.031770229,-2.013523579,-4.699219227,-1.736993313,-2.013523579,-4.699219227,-1.736993313,-6.87255621,-6.162675381,19.60851097,-6.87255621,-6.162675381,19.60851097,-3.959411144,-2.296039343,11.04146004,-3.959411144,-2.296039343,11.04146004,-0.477643251,-0.796670616,1.431732655,-0.477643251,-0.796670616,1.431732655,-0.74220252,-3.382408381,8.434772491,1.157596469,-3.368043184,19.60851097,1.157596469,-3.368043184,19.60851097,0.874482155,-4.767454147,-2.035071373,0.874482155,-4.767454147,-2.035071373,1.224634171,1.385045648,-7.875127792,1.224634171,1.385045648,-7.875127792,-5.886145115,-6.364984989,9.363123894,-5.886145115,-6.364984989,9.363123894,-0.565630138,-0.673369229,19.60851097,-0.506972194,-1.663371682,7.365761757,-0.506972194,-1.663371682,7.365761757,-0.29867667,-1.096544385,2.519298792,-0.29867667,-1.096544385,2.519298792,Jumping
56,-1.927332401,-3.503315687,19.60851097,-1.927332401,-3.503315687,19.60851097,-2.846107244,-3.155557871,19.60851097,2.060210466,-2.464232206,-7.494450092,2.060210466,-2.464232206,-7.494450092,0.093972415,0.301070869,-3.598485231,0.093972415,0.301070869,-3.598485231,-4.01507616,-5.287594318,12.85027885,-4.01507616,-5.287594318,12.85027885,-1.571194887,-1.199495077,16.44158173,-1.571194887,-1.199495077,16.44158173,0.554856241,-0.431554854,-0.40761283,-0.757764816,-1.507748485,4.391564369,-0.757764816,-1.507748485,4.391564369,-1.745373011,-3.424905539,19.60851097,-1.745373011,-3.424905539,19.60851097,-4.443039894,-9.185355186,19.0997448,-4.443039894,-9.185355186,19.0997448,2.422333479,0.025737667,-2.990956545,2.422333479,0.025737667,-2.990956545,2.989759445,1.398812294,-1.797446966,-7.055712223,-8.212111473,19.60851097,-7.055712223,-8.212111473,19.60851097,-2.881421804,-1.548449993,16.46492577,-2.881421804,-1.548449993,16.46492577,-0.309450567,-1.038484931,4.039616585,-0.309450567,-1.038484931,4.039616585,-0.217872351,-0.851737261,3.971382141,-0.217872351,-0.851737261,3.971382141,-3.820547342,-5.27981329,19.60851097,-1.537676096,-7.829039574,16.03217316,-1.537676096,-7.829039574,16.03217316,1.419761658,-0.368707061,-3.166930199,1.419761658,-0.368707061,-3.166930199,1.78427887,2.325368404,-2.737171173,1.78427887,2.325368404,-2.737171173,0.635660529,-6.50384903,13.34348488,0.635660529,-6.50384903,13.34348488,-5.852027416,-3.946243048,19.60851097,-2.047641039,-1.311424017,3.787028551,-2.047641039,-1.311424017,3.787028551,-0.125695586,-1.365892053,2.71203208,-0.125695586,-1.365892053,2.71203208,-3.843292236,-6.078279495,19.60851097,-3.843292236,-6.078279495,19.60851097,-3.599682331,-6.691793919,12.45463753,-3.599682331,-6.691793919,12.45463753,2.883217335,-0.869095206,-0.411204129,2.284068346,3.512293816,-5.593453884,2.284068346,3.512293816,-5.593453884,Jumping
57,-2.394800186,-6.24766922,1.407191992,-2.394800186,-6.24766922,1.407191992,-0.463876575,-10.23640919,19.60851097,-0.463876575,-10.23640919,19.60851097,-1.764526606,-3.263895512,7.61356163,-1.764526606,-3.263895512,7.61356163,-0.760159016,-0.869095206,1.355118155,-1.430535555,-5.550358295,16.05910873,-1.430535555,-5.550358295,16.05910873,-5.042787552,-4.108449936,19.60851097,-5.042787552,-4.108449936,19.60851097,1.276109457,-3.746327162,-2.072780132,1.276109457,-3.746327162,-2.072780132,0.991798043,1.63643682,-5.093065739,0.991798043,1.63643682,-5.093065739,-1.400607944,-3.742137194,2.098517895,-10.91755962,0.678756177,19.60851097,-10.91755962,0.678756177,19.60851097,-3.303399801,-1.026513934,9.029132843,-3.303399801,-1.026513934,9.029132843,0.284311444,-0.763151765,1.856104851,0.284311444,-0.763151765,1.856104851,-6.80791235,-1.549647093,4.034828186,-6.80791235,-1.549647093,4.034828186,-4.059369087,-6.91984129,19.60851097,0.396838933,-7.505223751,0.787692368,0.396838933,-7.505223751,0.787692368,3.01070857,3.602674961,-11.4646349,3.01070857,3.602674961,-11.4646349,0.343567938,-6.612784863,4.696226597,0.343567938,-6.612784863,4.696226597,-2.398391485,-3.879205227,19.60851097,-2.398391485,-3.879205227,19.60851097,-0.588973641,-2.051830769,8.528146744,-0.311844766,-0.487818599,-1.586158633,-0.311844766,-0.487818599,-1.586158633,-2.091933727,-7.627926826,19.34934044,-2.091933727,-7.627926826,19.34934044,-4.593874454,-2.206855536,19.59294891,-4.593874454,-2.206855536,19.59294891,2.008136749,-1.634042621,-2.915539026,2.008136749,-1.634042621,-2.915539026,2.100912094,2.162562609,-4.31554842,-1.927930951,-4.98532629,12.34390545,-1.927930951,-4.98532629,12.34390545,-3.295618534,-2.370858192,19.60851097,-3.295618534,-2.370858192,19.60851097,-1.136647224,-2.209848166,7.627926826,-1.136647224,-2.209848166,7.627926826,0.444124401,-0.827196658,-1.071405292,Jumping
58,0.444124401,-0.827196658,-1.071405292,-0.231040463,-2.806602955,9.295488358,-8.259995461,-3.671508312,19.60851097,-8.259995461,-3.671508312,19.60851097,-0.897227108,-3.682880878,-2.04584527,-0.897227108,-3.682880878,-2.04584527,5.661688328,0.972644448,-5.957971096,5.661688328,0.972644448,-5.957971096,-0.829590917,-3.502717018,3.144783974,-0.829590917,-3.502717018,3.144783974,-7.977479935,-1.398812294,19.60851097,-2.871246338,-1.982398987,9.992799759,-2.871246338,-1.982398987,9.992799759,-0.909796655,-1.766322255,2.298433542,-0.909796655,-1.766322255,2.298433542,-1.986588836,-1.473032594,0.274136096,-1.986588836,-1.473032594,0.274136096,-4.070741653,-1.109113932,19.60851097,-4.070741653,-1.109113932,19.60851097,-0.841561913,-7.484274387,4.740519524,1.407790542,1.688510776,-4.469974518,1.407790542,1.688510776,-4.469974518,0.29628247,-4.275445461,-2.719813108,0.29628247,-4.275445461,-2.719813108,-7.243657112,-7.076063156,19.60851097,-7.243657112,-7.076063156,19.60851097,-2.71083498,-4.153939724,14.70758057,-0.477044702,-1.441908002,-1.206677675,-0.477044702,-1.441908002,-1.206677675,-0.368108511,-1.963843942,1.660977483,-0.368108511,-1.963843942,1.660977483,-8.36893177,-8.485051155,19.55524063,-8.36893177,-8.485051155,19.55524063,-3.915118217,-7.114370346,1.073799491,-3.915118217,-7.114370346,1.073799491,3.317166567,1.890222192,-5.20678997,-1.135450125,-4.924872875,0.978031397,-1.135450125,-4.924872875,0.978031397,-7.577648163,-7.20953989,19.60851097,-7.577648163,-7.20953989,19.60851097,-3.037643433,-3.269282341,10.65419769,-3.037643433,-3.269282341,10.65419769,-0.739209771,-1.725022316,1.590947032,-0.739209771,-1.725022316,1.590947032,-1.479616642,-4.352658749,6.331466198,-4.981136799,-3.721786499,19.60851097,-4.981136799,-3.721786499,19.60851097,-2.017114878,-5.871181011,-3.285443306,-2.017114878,-5.871181011,-3.285443306,2.184709072,1.490390539,-7.829638004,Jumping
59,2.184709072,1.490390539,-7.829638004,-5.157709122,-4.981136799,3.546411276,-5.157709122,-4.981136799,3.546411276,-4.007295132,-5.521627903,19.60851097,0.286107093,-2.592920542,8.492233276,0.286107093,-2.592920542,8.492233276,-2.04823947,-0.70688808,-2.367266893,-2.04823947,-0.70688808,-2.367266893,-5.94959116,-8.35396862,18.77413177,-5.94959116,-8.35396862,18.77413177,-6.407482147,-7.933785915,17.89965057,-6.407482147,-7.933785915,17.89965057,0.092176765,-2.63900876,-4.222174644,3.49673152,1.137844324,-4.704007626,3.49673152,1.137844324,-4.704007626,-2.979583979,-6.707355976,13.34887123,-2.979583979,-6.707355976,13.34887123,-3.454833031,-4.335899353,19.60851097,-3.454833031,-4.335899353,19.60851097,-1.89620769,-4.034828186,11.11867237,-1.89620769,-4.034828186,11.11867237,-0.650025785,-1.232415318,-3.42071557,-3.359663486,-6.774992466,17.23526001,-3.359663486,-6.774992466,17.23526001,-5.968744755,-6.685808182,19.60851097,-5.968744755,-6.685808182,19.60851097,1.273116708,-3.919308186,0.458489627,1.273116708,-3.919308186,0.458489627,4.531625271,2.541445017,-6.281188011,4.531625271,2.541445017,-6.281188011,-5.134365559,-7.057507992,2.147598982,-14.46277428,-0.962469101,19.05365562,-14.46277428,-0.962469101,19.05365562,-2.56658411,-1.866878748,9.546878815,-2.56658411,-1.866878748,9.546878815,0.720654726,-1.016937137,0.901416957,0.720654726,-1.016937137,0.901416957,-4.282628059,-2.523488522,11.49875259,-7.168838501,-1.00496614,19.60851097,-7.168838501,-1.00496614,19.60851097,-1.491587639,-5.471948147,-1.571793437,-1.491587639,-5.471948147,-1.571793437,1.620275974,3.118447781,-7.544129372,1.620275974,3.118447781,-7.544129372,-0.305859268,-3.843890905,2.843114614,0.232237563,-17.96369553,19.60851097,0.232237563,-17.96369553,19.60851097,-2.37624526,-4.567538261,7.275979042,-2.37624526,-4.567538261,7.275979042,0.366911411,-0.760159016,-1.809417963,Jumping
60,0.366911411,-0.760159016,-1.809417963,-2.929904222,-6.01722765,5.329493046,-2.929904222,-6.01722765,5.329493046,-0.364517212,-2.583942175,19.60851097,2.442684174,-6.735487938,3.478775024,2.442684174,-6.735487938,3.478775024,1.470638394,2.141613483,-5.621585369,1.470638394,2.141613483,-5.621585369,-1.564610839,-2.095525026,-3.509301186,-1.564610839,-2.095525026,-3.509301186,-0.430357754,-7.355586052,19.60851097,-0.430357754,-7.355586052,19.60851097,-4.359242916,-1.647210717,13.48953056,0.400430232,-2.011129379,1.068412542,0.400430232,-2.011129379,1.068412542,-1.025316834,-2.011129379,-1.909974456,-1.025316834,-2.011129379,-1.909974456,-8.043919563,-10.69070911,19.60851097,-8.043919563,-10.69070911,19.60851097,-3.544615507,-12.60068321,18.91539001,-3.544615507,-12.60068321,18.91539001,-0.998382092,-3.312378168,-0.508767843,3.813963413,2.671330452,-4.16531229,3.813963413,2.671330452,-4.16531229,-0.945709646,-5.20080471,1.106719732,-0.945709646,-5.20080471,1.106719732,-0.921767652,-11.63701725,19.60851097,-0.921767652,-11.63701725,19.60851097,-0.702698171,-4.111443043,9.382876396,-0.702698171,-4.111443043,9.382876396,-0.430956304,-0.550666392,-0.945709646,-4.730343819,-4.93804121,8.591592789,-4.730343819,-4.93804121,8.591592789,-3.915118217,-5.093664169,19.60851097,-3.915118217,-5.093664169,19.60851097,-0.389656335,-6.151302814,4.537611008,-0.389656335,-6.151302814,4.537611008,4.541202068,2.521094322,-6.494272232,4.541202068,2.521094322,-6.494272232,-0.881664753,-3.621828556,-2.783858061,-3.883395195,-10.91755962,19.60851097,-3.883395195,-10.91755962,19.60851097,-5.31512785,-4.723161221,16.07048035,-5.31512785,-4.723161221,16.07048035,-1.054047346,-2.759916067,1.56042099,-1.054047346,-2.759916067,1.56042099,1.629852772,-1.698686123,3.077147722,1.629852772,-1.698686123,3.077147722,-6.191405773,-9.827599525,19.60851097,-2.644994259,-11.56997967,11.56997967,Jumping
61,-2.644994259,-11.56997967,11.56997967,2.7509377,-0.724246025,-8.643666267,2.7509377,-0.724246025,-8.643666267,-1.52510643,-0.277128845,-3.207033157,-1.52510643,-0.277128845,-3.207033157,-4.323329926,-2.52528429,19.60851097,-4.323329926,-2.52528429,19.60851097,-2.696469545,-0.851737261,17.67878532,-0.658405483,-1.866280198,5.257667065,-0.658405483,-1.866280198,5.257667065,-1.057638645,-1.121683478,-0.949899495,-1.057638645,-1.121683478,-0.949899495,-3.248333216,-1.683722377,19.60851097,-3.248333216,-1.683722377,19.60851097,0.772130072,-8.232462883,10.24419022,0.772130072,-8.232462883,10.24419022,0.738012671,1.335964561,-4.639962673,0.462080926,-1.394622445,-3.320757866,0.462080926,-1.394622445,-3.320757866,1.788468719,-10.62307262,19.58816147,1.788468719,-10.62307262,19.58816147,1.282693505,-1.698686123,19.15181732,1.282693505,-1.698686123,19.15181732,-0.456095427,-4.173093796,6.841431141,0.881066203,-1.236605167,-0.765545964,0.881066203,-1.236605167,-0.765545964,0.523731649,-6.560711384,19.60851097,0.523731649,-6.560711384,19.60851097,2.477400303,-6.930016994,19.60851097,2.477400303,-6.930016994,19.60851097,1.772906303,-1.462258697,-3.588309765,1.772906303,-1.462258697,-3.588309765,1.139639974,0.921767652,-5.118803024,-5.231929302,-6.894104004,12.34270859,-5.231929302,-6.894104004,12.34270859,-2.692878246,-2.149394512,19.60851097,-2.692878246,-2.149394512,19.60851097,-0.600944638,-1.945288897,7.598597527,-0.600944638,-1.945288897,7.598597527,-0.748188019,-0.280720145,1.964442492,-0.748188019,-0.280720145,1.964442492,-8.192359924,-11.8333416,19.60851097,-6.219537258,-12.78443813,19.60851097,-6.219537258,-12.78443813,19.60851097,2.708440781,-4.777030945,-9.200917244,2.708440781,-4.777030945,-9.200917244,1.873462796,2.78625226,-6.090848923,1.873462796,2.78625226,-6.090848923,-3.655946016,-6.09144783,8.318055153,-3.655946016,-6.09144783,8.318055153,Jumping
62,-0.991199493,-0.035913024,19.60851097,0.822408259,-1.066616893,5.410297394,0.822408259,-1.066616893,5.410297394,-0.641047478,-0.146644861,-2.248155355,-0.641047478,-0.146644861,-2.248155355,-3.743334293,-7.145494938,19.60851097,-3.743334293,-7.145494938,19.60851097,-7.198167324,-2.633023262,19.60851097,-7.198167324,-2.633023262,19.60851097,-3.313575268,-10.08258152,3.447052002,4.043208122,3.017292738,-5.934627533,4.043208122,3.017292738,-5.934627533,-0.571017087,-3.073556423,-4.474164486,-0.571017087,-3.073556423,-4.474164486,-12.13980007,-15.0589304,19.60851097,-12.13980007,-15.0589304,19.60851097,-5.676053524,-3.323750496,14.48910999,-5.676053524,-3.323750496,14.48910999,-0.447715729,-2.703053713,4.349666119,0.954089403,-0.934337199,-0.416591108,0.954089403,-0.934337199,-0.416591108,-9.995193481,-4.151545525,19.60851097,-9.995193481,-4.151545525,19.60851097,-3.210624456,-7.368754387,19.60851097,-3.210624456,-7.368754387,19.60851097,-1.231816769,-1.133654475,-3.550002575,-1.231816769,-1.133654475,-3.550002575,2.764704466,2.941875219,-6.925228596,-1.501762986,-6.492476463,4.138377666,-1.501762986,-6.492476463,4.138377666,-7.422623634,-1.118690729,19.60851097,-7.422623634,-1.118690729,19.60851097,-3.958812475,-2.165555477,9.463082314,-3.958812475,-2.165555477,9.463082314,-1.194706678,-0.860715508,1.438915253,-1.194706678,-0.860715508,1.438915253,0.189740479,-3.265691042,8.075642586,-4.355052948,-5.073313236,19.60851097,-4.355052948,-5.073313236,19.60851097,0.915183604,-8.384494781,10.48600483,0.915183604,-8.384494781,10.48600483,-0.099359371,0.417189658,-6.435614109,-0.099359371,0.417189658,-6.435614109,-2.266111851,0.922964752,-5.091868401,-2.266111851,0.922964752,-5.091868401,-5.435436249,-13.0418148,8.099584579,-0.118512981,-4.030039787,16.81747055,-0.118512981,-4.030039787,16.81747055,-0.374094009,-3.791218281,8.242637634,-0.374094009,-3.791218281,8.242637634,Jumping
63,-0.951695204,-0.215478152,-1.52450788,-0.951695204,-0.215478152,-1.52450788,1.606509328,-7.259818077,19.60851097,1.606509328,-7.259818077,19.60851097,1.147421122,-9.171587944,14.12519169,1.74956286,-1.206677675,-1.947683096,1.74956286,-1.206677675,-1.947683096,0.913387954,2.403778553,-5.506663799,0.913387954,2.403778553,-5.506663799,-6.146514416,-3.778648853,3.722983599,-6.146514416,-3.778648853,3.722983599,0.618901134,-8.106766701,19.60851097,0.618901134,-8.106766701,19.60851097,-0.961272001,-2.844910145,8.62511158,-0.627280831,-1.082777739,3.340509892,-0.627280831,-1.082777739,3.340509892,-1.176151633,-1.231816769,0.639850378,-1.176151633,-1.231816769,0.639850378,1.433528304,-6.98508358,19.60851097,1.433528304,-6.98508358,19.60851097,-0.849343061,-7.146093369,9.540893555,-0.849343061,-7.146093369,9.540893555,2.63721323,0.093373865,0.565031588,-1.440112352,1.205480576,-0.695515573,-1.440112352,1.205480576,-0.695515573,-0.916380703,-5.505466938,10.68053341,-0.916380703,-5.505466938,10.68053341,6.904279232,-2.776076794,19.60851097,6.904279232,-2.776076794,19.60851097,-1.049258947,-1.972822189,4.338293552,-1.500565886,-1.365892053,-0.815824211,-1.500565886,-1.365892053,-0.815824211,-6.531382084,-7.857769966,19.60851097,-6.531382084,-7.857769966,19.60851097,-1.687313676,-10.25017643,17.44594955,-1.687313676,-10.25017643,17.44594955,-0.055066638,-1.042674899,-4.500500679,-0.055066638,-1.042674899,-4.500500679,1.616684675,0.63326633,-3.761889458,-6.218938828,-16.00823021,19.55823326,-6.218938828,-16.00823021,19.55823326,-4.13239193,-2.291849613,17.11315536,-4.13239193,-2.291849613,17.11315536,-0.137068048,-2.52947402,6.882731438,-0.137068048,-2.52947402,6.882731438,0.248398423,-1.043273449,2.695272446,0.248398423,-1.043273449,2.695272446,-3.444059134,-5.136759758,19.60851097,-3.459022999,-4.378994942,19.60851097,-3.459022999,-4.378994942,19.60851097,Jumping
64,-1.093551636,-3.462015629,2.67731595,-1.093551636,-3.462015629,2.67731595,2.580350876,2.620453835,-3.549403906,2.580350876,2.620453835,-3.549403906,-1.370081902,-4.468178749,1.138442874,-1.370081902,-4.468178749,1.138442874,1.037886381,-7.675810814,19.60851097,-1.878251195,-1.052850246,13.23814011,-1.878251195,-1.052850246,13.23814011,1.386242747,-1.812410712,5.264849663,1.386242747,-1.812410712,5.264849663,-0.740406871,-0.278924495,-0.348356336,-0.740406871,-0.278924495,-0.348356336,-1.766322255,-8.668806076,19.60851097,-1.766322255,-8.668806076,19.60851097,0.458489627,-7.396287441,18.86391449,2.139817715,-0.478241801,0.347757787,2.139817715,-0.478241801,0.347757787,1.312022567,3.362057686,-1.601122379,1.312022567,3.362057686,-1.601122379,-0.737414122,-3.618835926,-2.759317398,-0.737414122,-3.618835926,-2.759317398,-6.609193802,-11.50892735,19.60851097,-6.609193802,-11.50892735,19.60851097,-2.605489969,-3.842693806,11.71662426,0.862511158,-2.269104719,4.417900562,0.862511158,-2.269104719,4.417900562,0.840364814,-1.057638645,4.387973309,0.840364814,-1.057638645,4.387973309,0.958877802,-11.23120022,19.60851097,0.958877802,-11.23120022,19.60851097,-1.126471877,-9.865307808,14.56452751,-1.126471877,-9.865307808,14.56452751,2.275090218,-0.951695204,-2.913144827,1.694496274,2.135627985,-3.995324135,1.694496274,2.135627985,-3.995324135,-6.387730122,-7.684788704,8.827422142,-6.387730122,-7.684788704,8.827422142,-0.088585466,-3.97377634,19.60851097,-0.088585466,-3.97377634,19.60851097,-0.095768064,-2.176329374,7.53993988,1.868075848,-1.215057373,2.381033659,1.868075848,-1.215057373,2.381033659,-2.685097218,-6.457760334,18.92915726,-2.685097218,-6.457760334,18.92915726,-3.666719913,-3.00891304,17.27596092,-3.666719913,-3.00891304,17.27596092,-0.260968,-6.02381134,6.408081055,-0.260968,-6.02381134,6.408081055,2.258330822,2.670133352,-5.449801445,Jumping
